seconds,sensor_accX_m_s_,sensor_accY_m_s_,sensor_accZ_m_s_,sensor_gyroX___s_,sensor_gyroY___s_,sensor_gyroZ___s_,sensor_magX__T_,sensor_magY__T_,sensor_magZ__T_,sensor_yaw___,sensor_pitch___,sensor_roll___,label5
0.0,4.70858144760132,-1.42477655410767,8.62940883636475,1.19665396213531,-0.190549999475479,0.114329993724823,-1284.30004882812,14.7000007629395,-798.900024414062,2.71777139319956,0.494143031612416,0.161679086449536,ST
0.0333333333333333,4.6290283203125,-1.28720366954803,8.52592945098877,1.22714197635651,-0.365855991840363,0.0076219998300075,-1289.10009765625,11.7000007629395,-815.700012207031,2.7177682490144,0.493323376022508,0.147770357403054,ST
0.0666666666666667,4.56861591339111,-1.23396897315979,8.4469747543335,1.08232402801514,-0.342989981174469,0.0838419944047928,-1269.90002441406,11.1000003814697,-813.300048828125,2.71298008855658,0.491965066902198,0.143294922135723,ST
0.1,4.46035194396973,-1.20107114315033,8.53729438781738,0.846041977405548,-0.289635986089706,0.175305992364883,-1289.10009765625,11.7000007629395,-798.900024414062,2.70920300723823,0.477908224728337,0.138488324974204,ST
0.133333333333333,4.53990507125854,-1.28660547733307,8.51037788391113,0.685979962348938,-0.198172003030777,0.274392008781433,-1274.70007324219,8.10000038146973,-806.100036621094,2.69765408326169,0.485643232372834,0.149120972243197,ST
0.166666666666667,4.48726844787598,-1.25251138210297,8.58155727386475,0.586893975734711,-0.25152599811554,0.365855991840363,-1277.10009765625,5.10000038146973,-810.900024414062,2.69323636932931,0.477829167693879,0.144268971635439,ST
0.2,4.50700712203979,-1.19568777084351,8.58395004272461,0.586893975734711,-0.198172003030777,0.480185985565186,-1281.90002441406,11.1000003814697,-798.900024414062,2.68831499347843,0.479769299014929,0.137838000001785,ST
0.233333333333333,4.48367977142334,-1.26447427272797,8.4589376449585,0.525918006896973,-0.236281991004944,0.457319974899292,-1272.30004882812,19.5,-806.100036621094,2.67665073976491,0.483129207630546,0.147905757865796,ST
0.266666666666667,4.635009765625,-1.24892246723175,8.53310775756836,0.579271972179413,-0.221037998795509,0.503051996231079,-1289.10009765625,11.7000007629395,-815.700012207031,2.67042192089543,0.493406951193769,0.144818471784575,ST
0.3,4.72233867645264,-1.26626861095428,8.61325836181641,0.746955990791321,-0.289635986089706,0.411587983369827,-1286.70007324219,7.50000047683716,-808.500061035156,2.66250840193222,0.497408854680924,0.145090114321992,ST
0.333333333333333,4.81086397171021,-1.27703523635864,8.83516979217529,0.884151995182037,0.0,0.381099998950958,-1279.5,4.5,-798.900024414062,2.65601342350753,0.494199185230004,0.142359404474531,ST
0.366666666666667,4.87366914749146,-1.23516523838043,9.09177303314209,1.04421401023865,0.640248000621796,0.320124000310898,-1269.90002441406,15.9000005722046,-794.100036621094,2.65302843862279,0.487097939335863,0.133426273681621,ST
0.4,5.03098058700562,-1.08084440231323,8.83277702331543,1.09756803512573,1.60824191570282,0.403965979814529,-1281.90002441406,11.1000003814697,-815.700012207031,2.6515973050399,0.511681057061645,0.120053695323296,ST
0.433333333333333,4.85871553421021,-1.13228464126587,8.38058090209961,0.716467976570129,2.78965187072754,0.960371971130371,-1267.5,8.10000038146973,-803.700012207031,2.63543434121343,0.516436767751735,0.133611575520504,ST
0.466666666666667,4.10565328598022,-1.32967185974121,8.26573753356934,-0.564027965068817,4.43600368499756,1.45580196380615,-1269.90002441406,10.5,-810.900024414062,2.61797624824875,0.447913503790319,0.161089621152792,ST
0.5,3.77188968658447,-1.45229113101959,8.79150581359863,-1.03659200668335,5.73936605453491,1.99696397781372,-1262.70007324219,11.1000003814697,-808.500061035156,2.61027692958353,0.390018915961561,0.16626247340423,ST
0.533333333333333,3.30593609809875,-1.49296486377716,8.87943267822266,-0.975615978240967,5.54881572723389,2.27897787094116,-1255.5,12.3000001907349,-813.300048828125,2.59992118974824,0.341700550762734,0.169104555834744,ST
0.566666666666667,2.93987274169922,-1.39187872409821,9.02836990356445,-0.487807989120483,4.35978412628174,2.44666194915771,-1248.30004882812,13.5000009536743,-830.100036621094,2.58888145684105,0.303208616904905,0.15478299458809,ST
0.6,2.85732889175415,-1.23695969581604,9.2939453125,0.449698001146317,2.57623600959778,2.16464805603027,-1253.10009765625,11.7000007629395,-820.500061035156,2.57507939000093,0.290859977364928,0.132483559157896,ST
0.633333333333333,2.89800262451172,-1.00248765945435,9.37230205535889,1.20427596569061,1.6768399477005,1.60061991214752,-1238.70007324219,12.9000005722046,-837.300048828125,2.5642973348347,0.29507673087932,0.105216998879618,ST
0.666666666666667,3.09598803520203,-0.82065212726593,9.04511833190918,1.53202199935913,0.716467976570129,1.41769194602966,-1241.10009765625,11.7000007629395,-830.100036621094,2.54944757867463,0.327054726078326,0.0886097403290646,ST
0.7,2.924320936203,-0.845774173736572,9.33820819854736,1.28811800479889,0.0533539988100529,1.53202199935913,-1238.70007324219,12.3000001907349,-818.100036621094,2.53029276942069,0.302008327916896,0.088903859739744,ST
0.733333333333333,3.05112719535828,-1.18551933765411,9.26583290100098,0.907018005847931,0.731711983680725,1.28811800479889,-1241.10009765625,11.1000003814697,-844.500061035156,2.50430039875501,0.314142873141663,0.126314626650662,ST
0.766666666666667,3.01464056968689,-1.30096101760864,9.29334735870361,0.655492007732391,0.983237981796265,0.663114011287689,-1238.70007324219,17.7000007629395,-837.300048828125,2.49318984556881,0.308984347122064,0.138223750602318,ST
0.8,2.80887937545776,-1.49176859855652,9.234130859375,-0.0381099991500378,0.693601965904236,0.243903994560242,-1231.5,15.3000001907349,-846.900024414062,2.48539915056257,0.290468934601749,0.160290686852932,ST
0.833333333333333,2.64738082885742,-1.53423666954041,9.18986892700195,-0.525918006896973,0.594515979290009,0.365855991840363,-1243.5,15.9000005722046,-825.300048828125,2.48248115974473,0.275724140216511,0.166468202612224,ST
0.866666666666667,2.74368190765381,-1.3559901714325,8.85072135925293,-0.388722002506256,0.6250039935112,0.472563982009888,-1248.30004882812,11.7000007629395,-842.100036621094,2.48349018184302,0.296127582924745,0.152904743458883,ST
0.9,3.10496020317078,-1.51629245281219,8.4176664352417,-0.190549999475479,0.541162014007568,0.403965979814529,-1241.10009765625,12.3000001907349,-827.700012207031,2.47301163678711,0.347133887614858,0.178724424557056,ST
0.933333333333333,3.36216163635254,-1.98942351341248,8.93147087097168,-0.533540010452271,1.19665396213531,0.640248000621796,-1231.5,11.7000007629395,-825.300048828125,2.45707630629764,0.349838265785675,0.220297910977479,ST
0.966666666666667,3.15998935699463,-2.27892470359802,9.50987529754639,-0.487807989120483,1.82165801525116,0.266770005226135,-1245.90002441406,14.7000007629395,-818.100036621094,2.45517637975857,0.309375228483189,0.235950159010047,ST
1.0,2.49066734313965,-2.63003468513489,10.6038789749146,0.0609759986400604,2.89635992050171,-0.602137982845306,-1221.90002441406,13.5000009536743,-854.100036621094,2.466197298963,0.219556126074193,0.242508295614075,ST
1.03333333333333,2.12639832496643,-2.81366443634033,10.6618986129761,0.853663980960846,3.20886182785034,-1.60061991214752,-1221.90002441406,13.5000009536743,-856.500061035156,2.48580787070557,0.185812237884227,0.255739580499285,ST
1.06666666666667,2.40333843231201,-2.36027216911316,9.96984672546387,1.15854394435883,2.13416004180908,-2.21800184249878,-1214.70007324219,12.9000005722046,-844.500061035156,2.51541188243069,0.22763429535855,0.229388193699317,ST
1.1,2.7963182926178,-2.01454544067383,8.80466461181641,1.49391198158264,1.50153398513794,-2.11891603469849,-1209.90002441406,18.3000011444092,-858.900024414062,2.53822299960535,0.298461244557492,0.221040513637566,ST
1.13333333333333,2.74846696853638,-2.06897664070129,8.12218379974365,0.937505960464478,2.5152599811554,-1.85976791381836,-1197.90002441406,10.5,-854.100036621094,2.55264534636503,0.313397971875922,0.246408969285479,ST
1.16666666666667,1.23277270793915,-2.28729867935181,9.65103721618652,-0.129574000835419,3.89484190940857,-1.27287399768829,-1200.30004882812,18.3000011444092,-837.300048828125,2.57783035593946,0.117700353026979,0.232498321128278,ST
1.2,1.24533367156982,-1.62814521789551,9.51884746551514,-0.0152439996600151,4.51984596252441,-0.701223969459534,-1205.10009765625,10.5,-844.500061035156,2.60079635774576,0.12067651443245,0.169170990954497,ST
1.23333333333333,0.38939106464386,-1.49775004386902,11.4221382141113,0.792688012123108,2.69056582450867,0.952749967575073,-1195.5,10.5,-861.300048828125,2.59723566632184,0.0289694390378372,0.129052708861017,ST
1.26666666666667,1.45707631111145,-1.16278994083405,9.05409049987793,1.08994603157043,0.46494197845459,2.15702605247498,-1188.30004882812,10.5,-861.300048828125,2.57178147014871,0.156972990042247,0.126399553402269,ST
1.3,1.6544634103775,-0.963010191917419,8.16285705566406,0.579271972179413,0.807931959629059,2.46190595626831,-1185.90002441406,12.9000005722046,-844.500061035156,2.54682105824238,0.196711363737563,0.117241405755252,ST
1.33333333333333,1.08263874053955,-0.788352429866791,8.62761402130127,0.358233988285065,1.56251001358032,2.55336999893188,-1178.70007324219,8.70000076293945,-856.500061035156,2.52589176298877,0.121254383548879,0.0910286314866404,ST
1.36666666666667,0.74947315454483,-0.795530140399933,8.88541412353516,0.739333987236023,2.12653803825378,2.62196803092957,-1185.90002441406,15.3000001907349,-861.300048828125,2.49735529120627,0.0797250839481821,0.0883422699090766,ST
1.4,0.713584542274475,-1.22559499740601,8.87105846405029,0.6250039935112,1.82165801525116,1.31098401546478,-1183.5,9.30000019073486,-866.100036621094,2.48140209343236,0.0760558803533157,0.136315622093595,ST
1.43333333333333,0.495262384414673,-1.26866126060486,9.87653636932373,0.0838419944047928,1.61586391925812,-0.175305992364883,-1188.30004882812,11.7000007629395,-863.700012207031,2.48596467398945,0.0469538555225189,0.127579840321559,ST
1.46666666666667,0.178844749927521,-1.04495573043823,9.98659515380859,0.0914639979600906,0.861285984516144,-1.02897000312805,-1173.90002441406,9.90000057220459,-856.500061035156,2.49930156897604,0.0165108576384486,0.1040721719557,ST
1.5,0.605918824672699,-1.11972367763519,9.70726203918457,-0.297257989645004,0.129574000835419,-1.00610399246216,-1181.10009765625,14.7000007629395,-873.300048828125,2.50953058713455,0.0618721859343205,0.115242822786427,ST
1.53333333333333,0.52636581659317,-1.01504862308502,9.23652362823486,-0.884151995182037,-0.480185985565186,-0.670735955238342,-1161.90002441406,13.5000009536743,-861.300048828125,2.51666568556744,0.0575517635318244,0.110940387421452,ST
1.56666666666667,0.342137783765793,-1.11613476276398,9.31846904754639,-0.914639949798584,0.327746003866196,-0.442075997591019,-1178.70007324219,14.1000003814697,-882.900024414062,2.52153199599701,0.0359804618427324,0.12076765016775,ST
1.6,0.249425619840622,-1.25610029697418,9.88550853729248,-0.3125019967556,0.914639949798584,-0.381099998950958,-1190.70007324219,13.5000009536743,-858.900024414062,2.52685535708008,0.0235309687320496,0.126909993377378,ST
1.63333333333333,0.122021168470383,-1.22559499740601,9.5032958984375,0.693601965904236,0.160062000155449,-0.884151995182037,-1185.90002441406,9.90000057220459,-870.900024414062,2.53605014180923,0.0126601807515915,0.127026724084149,ST
1.66666666666667,-0.0974973067641258,-1.02641332149506,8.98709774017334,1.34909391403198,-0.137196004390717,-1.32622802257538,-1171.5,12.3000001907349,-873.300048828125,2.54965534252921,-0.0102656271851642,0.111396889873884,ST
1.7,0.133385881781578,-1.03538548946381,9.60617637634277,1.48628997802734,-0.777444005012512,-1.08994603157043,-1173.90002441406,12.9000005722046,-868.500061035156,2.56050053778971,0.015342056685378,0.104750946763293,ST
1.73333333333333,0.465355217456818,-0.797922730445862,9.26643085479736,1.21951997280121,-1.6768399477005,-1.21951997280121,-1171.5,9.30000019073486,-861.300048828125,2.57169747685668,0.0530593229133835,0.0836853218608722,ST
1.76666666666667,0.549095273017883,-0.703416109085083,9.59361553192139,0.914639949798584,-1.05183601379395,-0.564027965068817,-1176.30004882812,14.7000007629395,-875.700012207031,2.57684853476201,0.05891765428127,0.0715529734421732,ST
1.8,0.465953379869461,-0.652574002742767,9.81851673126221,0.564027965068817,-0.449698001146317,0.434453994035721,-1171.5,8.70000076293945,-866.100036621094,2.57208670681255,0.0480584294657705,0.0654250584229031,ST
1.83333333333333,-0.0293090064078569,-0.160900458693504,8.72032642364502,0.449698001146317,0.327746003866196,1.16616594791412,-1178.70007324219,3.30000019073486,-861.300048828125,2.56111819093867,-0.0039304068696263,0.0176922071704985,ST
1.86666666666667,-0.216527760028839,-0.369054228067398,9.12347507476807,0.617381989955902,1.6920839548111,1.95123195648193,-1176.30004882812,12.9000005722046,-878.100036621094,2.54200679866152,-0.0267764898264728,0.0392479890742297,ST
1.9,-0.0544310100376606,-0.52038437128067,9.71563625335693,-0.0,1.11281192302704,1.92074394226074,-1178.70007324219,2.10000014305115,-861.300048828125,2.52236856150266,-0.0077234896267248,0.0534770003571554,ST
1.93333333333333,0.0783567279577255,-0.644798099994659,9.83406829833984,-0.228659987449646,-0.129574000835419,1.2500079870224,-1176.30004882812,9.90000057220459,-873.300048828125,2.50817768186376,0.0080276421129859,0.0658866003611742,ST
1.96666666666667,0.95762687921524,-0.929514169692993,10.4375944137573,-0.67835795879364,-1.15854394435883,0.266770005226135,-1181.10009765625,9.30000019073486,-868.500061035156,2.50373537182417,0.0930421354201341,0.0900458865502164,ST
2.0,1.36256968975067,-0.869699895381927,9.69230842590332,-2.31708788871765,-0.792688012123108,-1.79879200458527,-1169.10009765625,-0.900000035762787,-870.900024414062,2.52548005013559,0.140765209569711,0.0931089701421544,ST
2.03333333333333,0.859531462192535,-1.32428848743439,9.84124660491943,-1.28049600124359,0.0838419944047928,-1.47104597091675,-1164.30004882812,9.90000057220459,-851.700012207031,2.53707515217219,0.0865865179242287,0.135741576601919,ST
2.06666666666667,0.488682806491852,-1.09280717372894,9.94711780548096,-0.6250039935112,0.457319974899292,-0.335367977619171,-1171.5,10.5,-875.700012207031,2.54337841506661,0.0480833596293151,0.110492232192284,ST
2.1,0.0711790099740028,-0.803305983543396,9.50628662109375,-0.160062000155449,0.640248000621796,0.548784017562866,-1188.30004882812,9.90000057220459,-866.100036621094,2.53840968236346,0.0062766329950949,0.0845934952588816,ST
2.13333333333333,0.437840640544891,-1.27105379104614,9.96625804901123,-0.320124000310898,0.388722002506256,0.967993974685669,-1164.30004882812,11.1000003814697,-854.100036621094,2.52800865619914,0.0426375433697725,0.127445354408824,ST
2.16666666666667,0.627451956272125,-1.27105379104614,9.57327842712402,-0.769822001457214,0.0,0.564027965068817,-1169.10009765625,22.5,-868.500061035156,2.52223050940555,0.0647373266786845,0.133402378230957,ST
2.2,0.748276829719543,-1.44152450561523,9.64924240112305,-0.899396002292633,-0.0990860015153885,0.358233988285065,-1183.5,20.7000007629395,-858.900024414062,2.51794663251997,0.0766157112168961,0.149902675765205,ST
2.23333333333333,0.219518467783928,-1.38111209869385,10.0523910522461,-0.807931959629059,0.480185985565186,0.304879993200302,-1161.90002441406,12.3000001907349,-861.300048828125,2.51634598459558,0.0207688885853867,0.137964249531786,ST
2.26666666666667,0.314623206853867,-1.71547400951385,9.85560131072998,-0.891773998737335,0.83841997385025,0.175305992364883,-1166.70007324219,14.7000007629395,-854.100036621094,2.51535893589954,0.029939111290034,0.173865594072222,ST
2.3,0.183629885315895,-2.00019001960754,10.1355323791504,-1.18140995502472,0.884151995182037,0.0,-1171.5,8.10000038146973,-868.500061035156,2.51693304651797,0.0162653141491,0.196887945355242,ST
2.33333333333333,0.101684302091599,-2.1371648311615,10.4806613922119,-1.38720393180847,1.08994603157043,0.137196004390717,-1171.5,14.7000007629395,-866.100036621094,2.51786216980937,0.0076011593473615,0.20357227360909,ST
2.36666666666667,0.0861325860023499,-2.34830927848816,10.6786460876465,-1.32622802257538,0.846041977405548,0.46494197845459,-1166.70007324219,15.3000001907349,-866.100036621094,2.51501979052311,0.006260987986563,0.218768051895611,ST
2.4,0.702219843864441,-2.43025493621826,9.50927734375,-1.03659200668335,0.0457319989800453,0.87652999162674,-1161.90002441406,14.7000007629395,-866.100036621094,2.50569930462545,0.0709180465353754,0.252098899293051,ST
2.43333333333333,1.21363210678101,-2.64379191398621,8.82679557800293,-0.87652999162674,-0.381099998950958,1.30336201190948,-1169.10009765625,23.7000007629395,-882.900024414062,2.48871717983369,0.130895493328186,0.292826040794393,ST
2.46666666666667,1.1376678943634,-2.69463419914246,8.25078392028809,-0.716467976570129,-0.0914639979600906,1.63872992992401,-1169.10009765625,15.3000001907349,-870.900024414062,2.47018445520597,0.129590807235875,0.317263514233316,ST
2.5,0.163891181349754,-2.77538347244263,8.536696434021,-0.25152599811554,1.28811800479889,2.17227005958557,-1161.90002441406,17.7000007629395,-870.900024414062,2.45108271326851,0.0149720882630956,0.314817151490498,ST
2.53333333333333,-0.632237136363983,-3.09957695007324,9.01461315155029,0.114329993724823,3.12502002716064,2.20275783538818,-1147.5,17.7000007629395,-880.500061035156,2.44043841561388,-0.072568891055689,0.330830008509782,ST
2.56666666666667,-0.943271458148956,-2.92133021354675,9.41357421875,0.396344006061554,3.3613018989563,1.97409796714783,-1149.90002441406,21.3000011444092,-863.700012207031,2.42861730699319,-0.102020888251687,0.300070943941106,ST
2.6,-0.772800743579865,-2.94106888771057,9.10612869262695,0.304879993200302,1.96647596359253,1.54726600646973,-1149.90002441406,12.9000005722046,-887.700012207031,2.42042470798772,-0.0846858477872145,0.311735104927955,ST
2.63333333333333,-0.885251581668854,-2.97157430648804,8.57437992095947,-0.350611984729767,0.495429992675781,1.33385002613068,-1140.30004882812,15.9000005722046,-885.300048828125,2.41075157597603,-0.0988132593895113,0.334016328161296,ST
2.66666666666667,-0.630442678928375,-2.93867635726929,8.74664497375488,-0.983237981796265,0.182927995920181,1.70732796192169,-1140.30004882812,18.3000011444092,-885.300048828125,2.39318140927731,-0.0694966363938154,0.325660534365404,ST
2.7,-0.22011661529541,-3.12948393821716,8.87046051025391,-0.990859985351562,-0.0152439996600151,1.37958192825317,-1145.10009765625,23.1000003814697,-870.900024414062,2.37960909157803,-0.0242018781830188,0.340830702642111,ST
2.73333333333333,-0.163891181349754,-3.25987911224365,8.92668533325195,0.0076219998300075,0.457319974899292,1.14329993724823,-1142.70007324219,17.1000003814697,-873.300048828125,2.36942495938963,-0.0186798994034783,0.350090565188762,ST
2.76666666666667,-0.229088753461838,-3.21980357170105,9.5924186706543,0.693601965904236,0.769822001457214,0.937505960464478,-1147.5,18.3000011444092,-878.100036621094,2.36236622842269,-0.0244259865062877,0.322626569600081,ST
2.8,-0.981552600860596,-2.72274684906006,9.7539176940918,1.42531394958496,0.693601965904236,0.868907988071442,-1130.70007324219,18.3000011444092,-880.500061035156,2.35307938777028,-0.0981775898514914,0.269628438205381,ST
2.83333333333333,-0.888840436935425,-2.17664217948914,9.6342887878418,-0.434453994035721,0.92988395690918,-0.221037998795509,-1128.30004882812,21.9000015258789,-863.700012207031,2.35267730730996,-0.0912506860971236,0.223056158062861,ST
2.86666666666667,-0.82962429523468,-2.49844312667847,9.25267314910889,1.31098401546478,-0.0838419944047928,0.647870004177094,-1128.30004882812,20.1000003814697,-885.300048828125,2.35006671494241,-0.0865001960838548,0.261335611609089,ST
2.9,-0.413316786289215,-2.32557988166809,9.33461952209473,1.265251994133,-1.11281192302704,0.724089980125427,-1130.70007324219,23.7000007629395,-887.700012207031,2.33939507526159,-0.0413888558304042,0.241899746586662,ST
2.93333333333333,-0.183031752705574,-2.20296049118042,9.33402061462402,1.18140995502472,-1.56251001358032,0.640248000621796,-1137.90002441406,16.5,-873.300048828125,2.32911683892372,-0.0166997941785432,0.229690952449103,ST
2.96666666666667,0.245238617062569,-2.11024832725525,8.59770679473877,1.14329993724823,-0.739333987236023,0.144817993044853,-1140.30004882812,18.9000015258789,-868.500061035156,2.32555080790143,0.0288547944136866,0.238699017977408,ST
3.0,0.0053832866251468,-2.45597505569458,9.4787712097168,1.02134799957275,0.647870004177094,-0.243903994560242,-1147.5,18.9000015258789,-878.100036621094,2.32942637474077,-0.0004176503320673,0.251735311142868,ST
3.03333333333333,0.0041870009154081,-2.28610253334045,9.54636192321777,1.43293595314026,1.34147191047668,-0.899396002292633,-1135.5,21.3000011444092,-885.300048828125,2.34323129246683,-0.0014896017908548,0.232554023325849,ST
3.06666666666667,-0.0903195887804031,-1.92302966117859,9.76528167724609,1.10518991947174,1.02897000312805,-0.914639949798584,-1125.90002441406,21.3000011444092,-880.500061035156,2.35554118655655,-0.0105286015347834,0.192541365515053,ST
3.1,-0.797922730445862,-1.58627510070801,9.68393516540527,1.11281192302704,0.434453994035721,-0.609759986400604,-1135.5,24.3000011444092,-882.900024414062,2.36206791619167,-0.0816725090485315,0.160534444990337,ST
3.13333333333333,-0.45937380194664,-1.51988124847412,9.21259784698486,0.724089980125427,0.960371971130371,-0.213415995240211,-1135.5,14.7000007629395,-887.700012207031,2.36663810926349,-0.0507662511119931,0.16227385398895,ST
3.16666666666667,-0.538926839828491,-1.41520631313324,9.31727313995361,0.342989981174469,0.846041977405548,-0.0076219998300075,-1130.70007324219,11.7000007629395,-882.900024414062,2.36763362582842,-0.0585771804555853,0.150160423444281,ST
3.2,-0.977365612983704,-1.50313329696655,9.82449817657471,0.579271972179413,0.952749967575073,-0.129574000835419,-1133.10009765625,11.1000003814697,-873.300048828125,2.37104357084291,-0.0996026526660066,0.150856958891954,ST
3.23333333333333,-0.868503570556641,-1.41999137401581,9.84543323516846,0.830797970294952,0.106707997620106,-0.167683988809586,-1133.10009765625,15.9000005722046,-890.100036621094,2.37284022443773,-0.0872417922451029,0.141825015717255,ST
3.26666666666667,-1.30275535583496,-1.35658824443817,9.79638576507568,0.67835795879364,-0.800309956073761,0.167683988809586,-1125.90002441406,15.3000001907349,-885.300048828125,2.37027093625946,-0.129596874528858,0.136360768141772,ST
3.3,-1.31172752380371,-1.19030451774597,9.04033279418945,0.716467976570129,-1.06708002090454,1.05183601379395,-1133.10009765625,15.9000005722046,-878.100036621094,2.35822408890759,-0.141257053128408,0.129374384622082,ST
3.33333333333333,-0.171667039394379,-1.78007352352142,8.02229309082031,0.37347799539566,-1.57013201713562,2.08842802047729,-1125.90002441406,14.1000003814697,-878.100036621094,2.33949758624854,-0.0190500139809355,0.217582638740175,ST
3.36666666666667,0.166881889104843,-2.35608506202698,8.22865295410156,-0.0381099991500378,-1.65397393703461,1.75305998325348,-1133.10009765625,14.7000007629395,-880.500061035156,2.31601209819688,0.0214107204434432,0.278985373848666,ST
3.4,0.12441373616457,-2.85912346839905,9.11629676818848,-1.01372599601746,-2.24086785316467,0.922261953353882,-1147.5,23.7000007629395,-899.700012207031,2.29966383697647,0.0162708086832054,0.305705432602715,ST
3.43333333333333,-0.281725347042084,-3.02959418296814,10.2701148986816,-1.35671591758728,-2.38568592071533,0.952749967575073,-1128.30004882812,13.5000009536743,-878.100036621094,2.28280083977975,-0.0227592471293702,0.289172861933315,ST
3.46666666666667,0.388194799423218,-3.40702247619629,9.84423732757568,-2.14940404891968,-2.70580983161926,0.442075997591019,-1142.70007324219,21.9000015258789,-882.900024414062,2.26964751059487,0.0414028195256338,0.336999453299945,ST
3.5,0.52038437128067,-3.65285921096802,9.79638576507568,-2.87349390983582,-3.01068997383118,0.243903994560242,-1140.30004882812,20.7000007629395,-890.100036621094,2.25672233486677,0.0544860604033017,0.362027597142349,ST
3.53333333333333,0.540721237659454,-3.54040813446045,9.8077507019043,-0.228659987449646,-2.58385801315308,1.10518991947174,-1137.90002441406,18.3000011444092,-880.500061035156,2.23776636460061,0.0553944015893939,0.347018851626989,ST
3.56666666666667,0.477318078279495,-3.2748327255249,8.76817798614502,0.945127964019775,-1.34909391403198,1.37958192825317,-1152.30004882812,17.1000003814697,-890.100036621094,2.2168140374222,0.0523217238349477,0.355955344388945,ST
3.6,0.44322395324707,-2.79871106147766,8.72331714630127,1.69970595836639,-0.792688012123108,2.27135586738586,-1140.30004882812,20.1000003814697,-882.900024414062,2.19347172096008,0.0484622120186104,0.307728948411895,ST
3.63333333333333,-0.0334960073232651,-2.54330396652222,9.34718036651611,2.63721203804016,-0.792688012123108,2.99544596672058,-1159.5,21.3000011444092,-863.700012207031,2.15836080162877,-0.0034582337579211,0.261051680262682,ST
3.66666666666667,0.2554070353508,-2.08931350708008,9.93336009979248,3.90246391296387,-0.891773998737335,2.95733594894409,-1142.70007324219,20.1000003814697,-873.300048828125,2.12328329210494,0.0256430602871446,0.200656368710545,ST
3.7,-0.0735715851187706,-1.40324342250824,9.66718673706055,3.66618180274963,-1.30336201190948,2.72867584228516,-1149.90002441406,21.9000015258789,-868.500061035156,2.0939442507592,-0.0059106550403833,0.137767082398926,ST
3.73333333333333,-0.14355431497097,-0.970187902450562,9.44707012176514,2.76678586006165,-0.823175966739655,2.08842802047729,-1157.10009765625,24.3000011444092,-880.500061035156,2.07081478552385,-0.0140360483829774,0.0974792753710698,ST
3.76666666666667,0.0604124404489994,-0.986337780952454,9.2347297668457,2.21800184249878,0.221037998795509,1.53964400291443,-1149.90002441406,24.9000015258789,-885.300048828125,2.05369360168928,0.0058396159194754,0.102546415509216,ST
3.8,0.186620607972145,-1.23157632350922,8.77954292297363,0.952749967575073,0.259148001670837,0.114329993724823,-1169.10009765625,12.9000005722046,-870.900024414062,2.05216815639912,0.0205654087999095,0.137693350120104,ST
3.83333333333333,-0.468944102525711,-1.38051402568817,9.47159385681152,0.571649968624115,0.792688012123108,-0.495429992675781,-1161.90002441406,26.1000003814697,-870.900024414062,2.0593279966917,-0.0501761316916565,0.143787000772377,ST
3.86666666666667,-0.278734624385834,-1.58747148513794,9.65522384643555,0.739333987236023,0.83841997385025,-0.243903994560242,-1149.90002441406,12.3000001907349,-880.500061035156,2.06416663852771,-0.0298694941596541,0.161673952501738,ST
3.9,-0.397166937589645,-1.7423905134201,9.98001575469971,0.609759986400604,-0.0381099991500378,-0.396344006061554,-1159.5,20.1000003814697,-870.900024414062,2.06873194135428,-0.0389926695827397,0.171800192752783,ST
3.93333333333333,-0.1214230209589,-1.78904557228088,8.99128532409668,0.442075997591019,-0.449698001146317,-0.586893975734711,-1137.90002441406,15.3000001907349,-880.500061035156,2.07450401276359,-0.0122950160320501,0.195631648877408,ST
3.96666666666667,-0.355296939611435,-2.50502276420593,9.78262805938721,0.327746003866196,0.708845973014832,-0.632625997066498,-1142.70007324219,19.5,-861.300048828125,2.08480590763168,-0.0360872744546537,0.250141781226648,ST
4.0,-0.247033044695854,-2.27354145050049,10.9173059463501,0.152439996600151,-0.160062000155449,-1.13567793369293,-1140.30004882812,17.1000003814697,-887.700012207031,2.0947015886334,-0.0214818934092739,0.205124508291515,ST
4.03333333333333,-0.771604418754578,-1.71607220172882,10.1756086349487,1.85214591026306,-1.85214591026306,0.640248000621796,-1145.10009765625,16.5,-878.100036621094,2.08319666579808,-0.0716151329998373,0.163733612589282,ST
4.06666666666667,0.24882747232914,-1.5623494386673,8.39194583892822,1.82165801525116,-1.92074394226074,0.0076219998300075,-1157.10009765625,16.5,-870.900024414062,2.07951802752323,0.0323781876607976,0.180896153117843,ST
4.1,0.134582161903381,-1.29139065742493,9.07203483581543,1.55488801002502,-1.17378795146942,1.03659200668335,-1159.5,18.3000011444092,-878.100036621094,2.06783954607751,0.0164758045840478,0.1387503462582,ST
4.13333333333333,0.0747678726911545,-1.17834162712097,9.94711780548096,1.79879200458527,-0.815553963184357,1.64635193347931,-1159.5,17.1000003814697,-870.900024414062,2.0478091693474,0.0085509425712021,0.114803266712453,ST
4.16666666666667,0.178246602416039,-1.08742392063141,9.4727897644043,1.73019397258759,-0.579271972179413,1.49391198158264,-1166.70007324219,15.9000005722046,-873.300048828125,2.02998840953718,0.019403406486362,0.111327901370604,ST
4.2,-0.0669920146465302,-0.934299349784851,9.51286602020264,1.20427596569061,-0.327746003866196,1.43293595314026,-1145.10009765625,4.5,-868.500061035156,2.01408396758892,-0.0066671753223937,0.0957883341879239,ST
4.23333333333333,-0.201574176549911,-0.806894838809967,9.49252891540527,0.945127964019775,-0.358233988285065,1.28811800479889,-1161.90002441406,17.1000003814697,-885.300048828125,1.99965503842234,-0.0207132144488056,0.0831077580414845,ST
4.26666666666667,-0.166881889104843,-0.62147057056427,9.47757530212402,1.15854394435883,-0.67835795879364,1.05183601379395,-1166.70007324219,15.9000005722046,-875.700012207031,1.98814663936293,-0.0165066859078019,0.0634399276063342,ST
4.3,-0.0155517170205712,-0.698032855987549,9.46381855010986,1.28049600124359,-0.769822001457214,0.541162014007568,-1166.70007324219,9.30000019073486,-866.100036621094,1.98153887223476,-0.0003712339911425,0.0713868302404532,ST
4.33333333333333,0.0388792939484119,-0.813474416732788,9.87354564666748,1.37195992469788,-0.731711983680725,-0.0838419944047928,-1166.70007324219,11.7000007629395,-885.300048828125,1.9817416410137,0.0052067063398833,0.0798052732213148,ST
4.36666666666667,0.195592746138573,-0.679490387439728,9.64684963226318,1.40244793891907,-0.594515979290009,-0.609759986400604,-1173.90002441406,11.7000007629395,-870.900024414062,1.98784175091182,0.0213230137336592,0.067856725410251,ST
4.4,-0.141161739826202,-0.489879101514816,9.6342887878418,1.35671591758728,0.175305992364883,-1.15092194080353,-1161.90002441406,16.5,-870.900024414062,2.00040579476127,-0.0148197418081608,0.0484763830410294,ST
4.43333333333333,-0.320604622364044,-0.521580696105957,9.84124660491943,1.2500079870224,0.907018005847931,-1.15854394435883,-1157.10009765625,15.3000001907349,-878.100036621094,2.01332408904239,-0.033984635429885,0.0508377393866333,ST
4.46666666666667,-0.360082060098648,-0.477318078279495,9.88849925994873,0.922261953353882,0.815553963184357,-1.59299790859222,-1161.90002441406,12.9000005722046,-873.300048828125,2.03041310075638,-0.0376450520248692,0.0467330843831149,ST
4.5,-0.220714762806892,-0.577207982540131,9.73836612701416,0.259148001670837,0.426831990480423,-1.91312193870544,-1169.10009765625,12.3000001907349,-890.100036621094,2.05089072506053,-0.0231792042042174,0.0588195510613974,ST
4.53333333333333,-0.0657957270741463,-0.645396292209625,9.75331974029541,-0.327746003866196,-0.46494197845459,-2.18751406669617,-1157.10009765625,11.1000003814697,-875.700012207031,2.07395779687067,-0.0056771559418929,0.0666647755183443,ST
4.56666666666667,0.335558205842972,-0.695042133331299,9.33940410614014,-0.746955990791321,-1.17378795146942,-2.30946588516235,-1161.90002441406,11.1000003814697,-870.900024414062,2.09701408685525,0.0381287898768335,0.0754339627404682,ST
4.6,0.486888378858566,-0.803305983543396,9.34239482879639,-1.01372599601746,-0.861285984516144,-1.51677799224854,-1166.70007324219,14.1000003814697,-887.700012207031,2.1137539684078,0.0536026211089794,0.0874058286313316,ST
4.63333333333333,0.477318078279495,-1.03837621212006,9.45424747467041,-0.937505960464478,-0.0609759986400604,-1.15854394435883,-1152.30004882812,5.70000028610229,-856.500061035156,2.12525840960839,0.050474509610715,0.110915191487129,ST
4.66666666666667,0.0155517170205712,-1.18073427677155,9.84543323516846,-0.594515979290009,0.960371971130371,-0.983237981796265,-1154.70007324219,5.70000028610229,-880.500061035156,2.13705738170685,0.0001320005159379,0.12039001335227,ST
4.7,-0.153722748160362,-1.4540855884552,9.91840648651123,-0.381099998950958,1.72257196903229,-0.861285984516144,-1159.5,1.5,-882.900024414062,2.14893740449999,-0.0180788098576461,0.146252878938009,ST
4.73333333333333,-0.672910869121552,-1.39068245887756,10.2940406799316,-0.510673999786377,1.28811800479889,-0.37347799539566,-1149.90002441406,9.30000019073486,-880.500061035156,2.15381046482381,-0.0667937509734419,0.135245486891674,ST
4.76666666666667,-0.572422802448273,-1.4421226978302,9.98360443115234,-0.342989981174469,1.12043392658234,-0.342989981174469,-1142.70007324219,15.9000005722046,-873.300048828125,2.15931318686774,-0.0585419770060279,0.144100042604982,ST
4.8,-0.407933503389359,-1.44989860057831,9.42852783203125,-0.327746003866196,0.952749967575073,-0.358233988285065,-1159.5,6.30000019073486,-894.900024414062,2.16508363528367,-0.0442913040730557,0.153189341874934,ST
4.83333333333333,-0.32538977265358,-1.42836546897888,9.42015361785889,-0.67835795879364,1.11281192302704,-0.815553963184357,-1154.70007324219,18.9000015258789,-880.500061035156,2.17575354553118,-0.0358457571437783,0.151727767558384,ST
4.86666666666667,0.25839775800705,-1.64608943462372,9.59481143951416,-0.823175966739655,0.739333987236023,-0.46494197845459,-1147.5,9.30000019073486,-887.700012207031,2.1820177473078,0.0253582819316819,0.171303070149997,ST
4.9,0.034094151109457,-1.59345293045044,9.28377723693848,-0.685979962348938,0.381099998950958,0.0914639979600906,-1135.5,13.5000009536743,-882.900024414062,2.18180579181317,0.0029534790163714,0.17117962909315,ST
4.93333333333333,-0.0119628589600325,-1.38888800144196,9.15398025512695,-0.609759986400604,0.25152599811554,0.87652999162674,-1147.5,12.3000001907349,-897.300048828125,2.17323176585171,-0.0019536520199261,0.151652475196799,ST
4.96666666666667,0.0005981429712846,-1.43554317951202,9.47757530212402,-0.0914639979600906,0.190549999475479,2.0655620098114,-1128.30004882812,16.5,-882.900024414062,2.15234923443961,-0.0008076764039043,0.150482215568962,ST
5.0,-0.364269077777863,-1.69693160057068,9.51107120513916,0.342989981174469,1.12043392658234,3.26983785629272,-1145.10009765625,11.7000007629395,-870.900024414062,2.0865760244119,-0.0406089483284828,0.175745167015872,ST
5.03333333333333,-0.751865744590759,-1.84706544876099,9.63548469543457,-0.144817993044853,1.27287399768829,3.20123982429504,-1128.30004882812,14.7000007629395,-878.100036621094,2.05444456661745,-0.079705886143192,0.189240312746258,ST
5.06666666666667,-0.602928102016449,-1.36675667762756,9.46022891998291,-0.0,-1.08232402801514,3.91008591651917,-1125.90002441406,15.3000001907349,-880.500061035156,1.92349578545565,-0.0620963673506828,0.143043587859401,ST
5.1,0.431261092424393,-1.37333631515503,8.63359546661377,0.144817993044853,-2.21800184249878,3.94819593429565,-1140.30004882812,15.3000001907349,-885.300048828125,1.87952734214946,0.0519476232021928,0.157863928407254,ST
5.13333333333333,0.644199967384338,-1.4241783618927,8.69041919708252,0.0838419944047928,-1.65397393703461,3.42227792739868,-1149.90002441406,19.5,-882.900024414062,1.84145299466869,0.0748858118382993,0.16276132575389,ST
5.16666666666667,0.727940022945404,-1.44630968570709,9.45783710479736,-0.0762199983000755,-0.975615978240967,2.15702605247498,-1147.5,14.7000007629395,-870.900024414062,1.81872907126296,0.0770466630987539,0.152194025947909,ST
5.2,0.0496458671987057,-1.40982294082642,9.98121166229248,0.46494197845459,0.228659987449646,-0.685979962348938,-1137.90002441406,17.7000007629395,-890.100036621094,1.83388593966395,0.0046962923500504,0.139502092369624,ST
5.23333333333333,-0.44023323059082,-1.49595558643341,10.0200910568237,0.846041977405548,1.46342396736145,-1.18140995502472,-1142.70007324219,15.9000005722046,-880.500061035156,1.84866954631675,-0.0456139055252616,0.146828518801452,ST
5.26666666666667,-0.542515695095062,-1.92183339595795,9.69709396362305,1.07470202445984,2.23324584960938,-2.13416004180908,-1140.30004882812,16.5,-870.900024414062,1.87933476071281,-0.0579256579789079,0.1940106272693,ST
5.3,-0.691453278064728,-1.93020737171173,9.39263916015625,0.952749967575073,1.82165801525116,-2.99544596672058,-1147.5,11.7000007629395,-880.500061035156,1.91461726227083,-0.0740420207100166,0.201438579616904,ST
5.33333333333333,-1.35479378700256,-1.67599666118622,9.77545070648193,1.28811800479889,1.32622802257538,-3.27745985984802,-1133.10009765625,19.5,-880.500061035156,1.94836610538482,-0.137033029031837,0.168404292860485,ST
5.36666666666667,-1.47442245483398,-1.04854464530945,9.95788383483887,2.23324584960938,-0.0228659994900227,-3.3613018989563,-1130.70007324219,17.7000007629395,-882.900024414062,1.9776887635981,-0.145558302450156,0.101905751241384,ST
5.4,-1.17475283145905,-0.697434723377228,9.80117034912109,2.33995389938354,-1.50915598869324,-2.17989206314087,-1118.70007324219,10.5,-882.900024414062,1.99734729730609,-0.116128840413623,0.0674016440736836,ST
5.43333333333333,-0.806296706199646,-0.61548912525177,9.57985782623291,1.95885396003723,-2.14940404891968,-1.69970595836639,-1137.90002441406,8.70000076293945,-897.300048828125,2.01460205889107,-0.0798978989030513,0.0609643370281127,ST
5.46666666666667,-0.247033044695854,-0.772202551364899,8.81602954864502,0.335367977619171,-2.72867584228516,-1.42531394958496,-1137.90002441406,10.5,-890.100036621094,2.02955271596541,-0.0229652094613283,0.0868217326261192,ST
5.5,-0.0992917343974113,-1.03478729724884,8.67666149139404,-1.04421401023865,-1.90549993515015,-1.69970595836639,-1152.30004882812,8.70000076293945,-880.500061035156,2.04519578365284,-0.007716047358925,0.120517722539839,ST
5.53333333333333,-0.05742172524333,-1.2818204164505,8.66469955444336,-1.53202199935913,-0.746955990791321,-1.6692179441452,-1140.30004882812,12.9000005722046,-892.500061035156,2.06129854291491,-0.0048350344365136,0.149536041265039,ST
5.56666666666667,-0.152526453137398,-1.6783891916275,9.61694240570068,-1.64635193347931,-0.87652999162674,-1.30336201190948,-1140.30004882812,14.7000007629395,-880.500061035156,2.07309600374499,-0.0137126409431586,0.175665012743239,ST
5.6,-0.12441373616457,-2.01155471801758,9.2347297668457,-1.94360995292664,-1.31860601902008,-1.44817996025085,-1135.5,12.9000005722046,-894.900024414062,2.08520401001609,-0.0103726194550942,0.217856221579181,ST
5.63333333333333,0.0059814294800162,-2.36984252929688,9.81433010101318,-2.36281991004944,-0.990859985351562,-1.6844619512558,-1145.10009765625,12.9000005722046,-878.100036621094,2.09986654404565,0.0029634502562621,0.241031724902817,ST
5.66666666666667,-0.0538328662514687,-2.45537686347961,9.96924877166748,-1.91312193870544,-0.830797970294952,-1.90549993515015,-1147.5,14.1000003814697,-875.700012207031,2.1169097832244,-0.0030258036459131,0.244833371843903,ST
5.7,-0.127404451370239,-2.19937181472778,9.89208889007568,-0.37347799539566,-0.365855991840363,-1.71494996547699,-1145.10009765625,21.3000011444092,-882.900024414062,2.13417945665292,-0.0112930288007003,0.219471774132341,ST
5.73333333333333,-0.07656230032444,-2.15152025222778,9.32624530792236,0.403965979814529,-0.25152599811554,-1.39482593536377,-1149.90002441406,18.3000011444092,-890.100036621094,2.14901442844246,-0.0070270234870867,0.22603731702868,ST
5.76666666666667,-0.126208171248436,-2.05581736564636,9.38546180725098,0.37347799539566,-0.327746003866196,-0.830797970294952,-1142.70007324219,11.7000007629395,-875.700012207031,2.15686569064296,-0.0122637537388066,0.215007275546386,ST
5.8,-0.137572884559631,-2.01753616333008,9.39503192901611,0.182927995920181,-0.121951997280121,-0.137196004390717,-1135.5,10.5,-880.500061035156,2.1580363173564,-0.0140566940374245,0.211217435178678,ST
5.83333333333333,-0.625657558441162,-2.12280941009521,10.0087261199951,0.0304879993200302,0.0609759986400604,0.518296003341675,-1147.5,11.7000007629395,-873.300048828125,2.15284572129033,-0.0613315725396777,0.208894461218691,ST
5.86666666666667,-0.480308800935745,-2.03847122192383,9.69828987121582,-0.0990860015153885,-0.632625997066498,1.15854394435883,-1142.70007324219,15.3000001907349,-892.500061035156,2.13841981304228,-0.0477680724940602,0.207240821189597,ST
5.9,-0.257201462984085,-1.98822724819183,9.41297626495361,-0.144817993044853,-1.44055795669556,1.74543797969818,-1142.70007324219,17.7000007629395,-875.700012207031,2.11573570064108,-0.0249053530065141,0.208327077402476,ST
5.93333333333333,-0.0699827298521996,-2.15152025222778,9.13962459564209,-0.137196004390717,-1.36433792114258,2.21037983894348,-1154.70007324219,17.1000003814697,-885.300048828125,2.08978313231439,-0.0060302313356038,0.231396353938978,ST
5.96666666666667,0.16269488632679,-2.15570735931396,9.59660625457764,-0.0609759986400604,-1.18903195858002,2.23324584960938,-1135.5,10.5,-882.900024414062,2.06147752438379,0.0177036807807411,0.221148198022169,ST
6.0,0.104076877236366,-2.15032386779785,9.30291748046875,0.144817993044853,-1.265251994133,2.61434602737427,-1147.5,12.3000001907349,-887.700012207031,2.02933660286821,0.0120267627074749,0.226960217782049,ST
6.03333333333333,-0.115441590547562,-2.2532045841217,9.2227668762207,0.0457319989800453,-0.510673999786377,2.72105383872986,-1152.30004882812,13.5000009536743,-882.900024414062,1.99892875896454,-0.0124084932019004,0.239470308492818,ST
6.06666666666667,-0.144152462482452,-2.32199096679688,9.68094444274902,-0.213415995240211,0.106707997620106,2.85824990272522,-1154.70007324219,14.7000007629395,-868.500061035156,1.97028526118595,-0.0158220626568859,0.235703733749373,ST
6.1,0.101684302091599,-2.45477867126465,9.10074520111084,-0.533540010452271,0.243903994560242,2.30946588516235,-1152.30004882812,19.5,-882.900024414062,1.94791064102228,0.0093050612080076,0.26440816466786,ST
6.13333333333333,-0.155517175793648,-2.59594058990479,9.43211650848389,-0.449698001146317,0.449698001146317,2.24086785316467,-1152.30004882812,12.9000005722046,-878.100036621094,1.92670031246501,-0.0176725747854033,0.269292684682366,ST
6.16666666666667,0.0101684303954244,-2.44999361038208,9.2939453125,0.129574000835419,0.304879993200302,2.32470989227295,-1159.5,17.1000003814697,-868.500061035156,1.90206330463729,-0.0004955048426829,0.257523555239939,ST
6.2,0.430662930011749,-2.1012761592865,9.10014724731445,0.78506600856781,0.228659987449646,1.35671591758728,-1145.10009765625,15.9000005722046,-880.500061035156,1.88809767344657,0.0451451544567112,0.225668405004729,ST
6.23333333333333,0.413914948701859,-2.1030707359314,8.4828634262085,0.800309956073761,1.6844619512558,0.739333987236023,-1140.30004882812,20.1000003814697,-873.300048828125,1.88337663974842,0.0441621767264609,0.241642059520642,ST
6.26666666666667,-0.233275756239891,-2.06478953361511,9.14620399475098,0.297257989645004,2.55336999893188,0.6250039935112,-1140.30004882812,19.5,-885.300048828125,1.88316141433918,-0.0294068021052372,0.221525488233627,ST
6.3,-0.62147057056427,-2.04445266723633,9.64924240112305,0.221037998795509,2.30946588516235,0.594515979290009,-1140.30004882812,14.1000003814697,-885.300048828125,1.88161840890236,-0.0670612529403069,0.208398866298707,ST
6.33333333333333,-0.505430817604065,-2.43503999710083,9.7598991394043,0.0533539988100529,0.983237981796265,0.510673999786377,-1133.10009765625,13.5000009536743,-902.100036621094,1.88089744583991,-0.0520911520616467,0.244370726512879,ST
6.36666666666667,-0.519188106060028,-2.45477867126465,9.75272083282471,0.137196004390717,-0.152439996600151,-0.419209986925125,-1137.90002441406,21.3000011444092,-892.500061035156,1.88513483959503,-0.0511431474675176,0.246372518689893,ST
6.4,-0.541319370269775,-2.25499892234802,9.71683216094971,0.922261953353882,-0.556405961513519,-1.05945801734924,-1123.5,17.7000007629395,-878.100036621094,1.89427189534741,-0.0528514327942217,0.226520038393781,ST
6.43333333333333,-0.713584542274475,-2.11144471168518,9.43989276885986,1.73781597614288,-0.579271972179413,-1.18140995502472,-1125.90002441406,24.3000011444092,-894.900024414062,1.90591586008371,-0.0721939637658029,0.217152176408947,ST
6.46666666666667,-0.616685390472412,-2.03368616104126,9.51585674285889,2.72105383872986,-0.0762199983000755,-1.20427596569061,-1140.30004882812,15.9000005722046,-878.100036621094,1.92025262222037,-0.0627339006635265,0.205929970136653,ST
6.5,-0.439036935567856,-1.7746901512146,9.60557842254639,2.99544596672058,-0.746955990791321,-0.426831990480423,-1130.70007324219,18.3000011444092,-875.700012207031,1.92313897439743,-0.0435155368878612,0.177510652964984,ST
6.53333333333333,-0.486888378858566,-1.47442245483398,9.27719783782959,2.59910202026367,-1.45580196380615,-0.175305992364883,-1135.5,15.9000005722046,-892.500061035156,1.92274032418871,-0.049223883613943,0.15308853285134,ST
6.56666666666667,-0.330773055553436,-1.41042113304138,8.96377086639404,1.90549993515015,-1.65397393703461,0.0914639979600906,-1135.5,14.7000007629395,-878.100036621094,1.91989623419549,-0.0336193786859487,0.152721366727087,ST
6.6,0.042468149214983,-1.59345293045044,9.07382869720459,0.701223969459534,-1.98171997070312,0.640248000621796,-1152.30004882812,8.10000038146973,-868.500061035156,1.90891467036394,0.007815107704115,0.172621618128411,ST
6.63333333333333,0.279332756996155,-1.7746901512146,9.72939395904541,0.129574000835419,-2.40855193138123,0.701223969459534,-1154.70007324219,14.7000007629395,-892.500061035156,1.89712909558941,0.0321349773636566,0.18025234311849,ST
6.66666666666667,-0.0281127188354731,-1.84706544876099,10.5787563323975,0.152439996600151,-2.25611186027527,0.960371971130371,-1145.10009765625,8.10000038146973,-890.100036621094,1.88338934202744,0.000996385988664,0.172601137063184,ST
6.7,0.0490477234125137,-1.84287846088409,9.80356311798096,0.403965979814529,-1.37958192825317,1.64635193347931,-1149.90002441406,8.10000038146973,-880.500061035156,1.8633366111291,0.0067516874613226,0.185121834256565,ST
6.73333333333333,0.16269488632679,-1.80041038990021,9.39204120635986,0.289635986089706,-0.87652999162674,2.02745199203491,-1159.5,12.9000005722046,-870.900024414062,1.8408895100306,0.0178411477904042,0.18895612345939,ST
6.76666666666667,-0.0131591456010938,-1.62455630302429,9.56490421295166,0.205793991684914,-0.67835795879364,2.15702605247498,-1159.5,15.9000005722046,-878.100036621094,1.81782176762953,-0.000804728573575,0.167893522223114,ST
6.8,0.111852735280991,-1.42896354198456,9.32205867767334,0.571649968624115,-0.914639949798584,1.98934197425842,-1159.5,14.1000003814697,-892.500061035156,1.79602148028401,0.0129045324069845,0.151166100348007,ST
6.83333333333333,0.0873288735747337,-1.44870233535767,9.29274940490723,0.899396002292633,-1.18903195858002,1.76830399036407,-1154.70007324219,8.10000038146973,-868.500061035156,1.77589444881823,0.0108669821218266,0.153116519189739,ST
6.86666666666667,0.24224790930748,-1.48518896102905,9.14740085601807,0.967993974685669,-1.02897000312805,1.17378795146942,-1171.5,13.5000009536743,-890.100036621094,1.76183015653161,0.0275703552415965,0.159326688741014,ST
6.9,0.179442897439003,-1.50133883953094,9.55234336853027,1.05183601379395,-0.708845973014832,0.594515979290009,-1154.70007324219,16.5,-863.700012207031,1.75450214207497,0.0196244305461198,0.154086391142009,ST
6.93333333333333,0.147741317749023,-1.41999137401581,9.66240119934082,1.18140995502472,-0.556405961513519,0.266770005226135,-1169.10009765625,12.3000001907349,-892.500061035156,1.75090766508326,0.0160236786487286,0.143871284603718,ST
6.96666666666667,-0.0233275759965181,-1.32428848743439,9.50508975982666,1.30336201190948,-0.480185985565186,0.3125019967556,-1152.30004882812,14.7000007629395,-878.100036621094,1.74705367625783,-0.0016613851648466,0.136162895091391,ST
7.0,-0.138769164681435,-1.24533367156982,9.58344650268555,1.35671591758728,0.0990860015153885,0.548784017562866,-1161.90002441406,12.9000005722046,-878.100036621094,1.74164199451395,-0.0146415683203453,0.126847676914276,ST
7.03333333333333,-0.116039738059044,-1.30335354804993,9.62471866607666,1.15092194080353,0.106707997620106,0.724089980125427,-1157.10009765625,6.30000019073486,-878.100036621094,1.73457370287202,-0.0123001823267686,0.132570453124818,ST
7.06666666666667,-0.226098045706749,-1.25550210475922,9.42792987823486,0.746955990791321,-0.198172003030777,0.746955990791321,-1135.5,11.7000007629395,-878.100036621094,1.72653387987709,-0.0235884986491564,0.131055111354496,ST
7.1,-0.309838056564331,-1.54021811485291,9.55353927612305,0.304879993200302,0.213415995240211,1.13567793369293,-1164.30004882812,19.5,-870.900024414062,1.7154589992916,-0.0326853560061041,0.159238017347605,ST
7.13333333333333,-0.101086162030697,-1.67539846897125,9.95489311218262,0.0228659994900227,0.198172003030777,1.01372599601746,-1157.10009765625,12.9000005722046,-885.300048828125,1.70468463720776,-0.0106549640410027,0.166676044125969,ST
7.16666666666667,0.150133892893791,-1.4481041431427,9.22396278381348,0.6250039935112,-0.282013982534409,1.06708002090454,-1159.5,12.9000005722046,-878.100036621094,1.6932582042398,0.0162575843068973,0.154671542599395,ST
7.2,-0.0980954468250275,-1.46784281730652,9.63847541809082,0.960371971130371,0.0533539988100529,1.07470202445984,-1161.90002441406,14.7000007629395,-880.500061035156,1.68108376604606,-0.0104259792474225,0.149434744285405,ST
7.23333333333333,-0.127404451370239,-1.19329524040222,9.57387638092041,1.00610399246216,0.0914639979600906,1.06708002090454,-1164.30004882812,8.10000038146973,-892.500061035156,1.66938880898832,-0.0135889052782465,0.122232091937348,ST
7.26666666666667,-0.262584775686264,-1.26806306838989,9.54217529296875,0.884151995182037,0.182927995920181,0.952749967575073,-1145.10009765625,8.70000076293945,-875.700012207031,1.66024392308092,-0.0277941781260775,0.130522442431702,ST
7.3,-0.0550291538238525,-1.28959619998932,9.50150108337402,0.381099998950958,-0.0152439996600151,0.609759986400604,-1152.30004882812,13.5000009536743,-870.900024414062,1.65405761562973,-0.0058712045852398,0.134226970040579,ST
7.33333333333333,-0.0442625805735588,-1.16099548339844,9.54337120056152,0.282013982534409,-0.274392008781433,0.304879993200302,-1145.10009765625,17.7000007629395,-870.900024414062,1.65051633857815,-0.0041939285744898,0.12057520144959,ST
7.36666666666667,-0.0257201474159956,-1.26507234573364,9.42613506317139,0.495429992675781,0.0685980021953583,0.0381099991500378,-1147.5,21.9000015258789,-868.500061035156,1.65025780869668,-0.0028323965452147,0.132541856935656,ST
7.4,0.0771604403853416,-1.09041464328766,9.5744743347168,0.586893975734711,0.282013982534409,-0.0152439996600151,-1145.10009765625,14.7000007629395,-870.900024414062,1.65077787523133,0.0075150868168756,0.112385535331058,ST
7.43333333333333,-0.0945065915584564,-1.05093717575073,9.7180290222168,0.708845973014832,0.121951997280121,-0.297257989645004,-1142.70007324219,12.3000001907349,-868.500061035156,1.65412038541226,-0.0098148913597163,0.106495801886975,ST
7.46666666666667,0.166283741593361,-1.11792922019958,10.0260725021362,0.632625997066498,-0.289635986089706,-0.724089980125427,-1157.10009765625,12.3000001907349,-885.300048828125,1.66115809984796,0.0171026145866689,0.109916494561823,ST
7.5,0.555076658725739,-1.07665729522705,9.94651985168457,0.525918006896973,-1.02897000312805,-0.899396002292633,-1145.10009765625,18.9000015258789,-875.700012207031,1.66911296843407,0.0573484336067327,0.106830975934609,ST
7.53333333333333,1.13946235179901,-1.01684308052063,9.62172794342041,0.381099998950958,-1.55488801002502,-1.31098401546478,-1147.5,17.1000003814697,-875.700012207031,1.68099609903822,0.120132060484719,0.104387636025842,ST
7.56666666666667,0.74648243188858,-0.814072608947754,9.14919471740723,0.442075997591019,-0.693601965904236,-1.06708002090454,-1169.10009765625,11.1000003814697,-887.700012207031,1.69258875974094,0.0824880578745659,0.0878396253262776,ST
7.6,0.510814070701599,-0.778183996677399,8.84234714508057,0.419209986925125,0.632625997066498,-0.78506600856781,-1152.30004882812,8.70000076293945,-863.700012207031,1.70104692990915,0.0565215569489131,0.0869664145530161,ST
7.63333333333333,-0.132787734270096,-0.715378999710083,9.15756893157959,0.525918006896973,1.75305998325348,-0.228659987449646,-1159.5,16.5,-875.700012207031,1.70505999875394,-0.017420309928269,0.0770608387717776,ST
7.66666666666667,-0.531150937080383,-0.890036761760712,9.91661262512207,0.426831990480423,2.21800184249878,0.114329993724823,-1147.5,9.90000057220459,-887.700012207031,1.70653123752857,-0.0571409724751657,0.0887669872794385,ST
7.7,-0.155517175793648,-1.04076874256134,9.76887130737305,0.121951997280121,0.983237981796265,-0.0076219998300075,-1145.10009765625,14.7000007629395,-873.300048828125,1.70843620219126,-0.0175466857712471,0.105923964177624,ST
7.73333333333333,0.28411790728569,-0.942075192928314,9.69529914855957,-0.510673999786377,-1.07470202445984,-0.746955990791321,-1142.70007324219,5.10000038146973,-880.500061035156,1.71521393591591,0.0311170035759467,0.0977270940933395,ST
7.76666666666667,0.698032855987549,-1.03299295902252,9.12048435211182,-0.861285984516144,-1.51677799224854,-0.952749967575073,-1157.10009765625,13.5000009536743,-868.500061035156,1.72325243960187,0.0786948299393223,0.114167544173682,ST
7.8,-0.0107665732502937,-1.04017066955566,9.26822566986084,-0.792688012123108,-0.304879993200302,-0.884151995182037,-1161.90002441406,17.1000003814697,-875.700012207031,1.73214667232575,-0.0003927970792337,0.113146331035882,ST
7.83333333333333,0.235668331384659,-1.45588004589081,9.63010215759277,-0.480185985565186,1.47104597091675,-1.08994603157043,-1147.5,8.10000038146973,-875.700012207031,1.74520530658619,0.021922839417855,0.150804603441153,ST
7.86666666666667,-0.452794224023819,-1.43733751773834,10.1134014129639,-0.266770005226135,1.21189796924591,-0.891773998737335,-1142.70007324219,14.1000003814697,-882.900024414062,1.75593569495504,-0.0461208048008756,0.141733161187624,ST
7.9,-0.741697311401367,-1.59704172611237,10.2862644195557,-0.243903994560242,0.853663980960846,-0.655492007732391,-1142.70007324219,6.90000009536743,-868.500061035156,1.76456406146842,-0.0724083828268184,0.154544405183813,ST
7.93333333333333,-0.506028950214386,-1.55935871601105,9.77365589141846,-0.358233988285065,-0.182927995920181,-0.236281991004944,-1135.5,17.1000003814697,-878.100036621094,1.76674441199496,-0.0507192615282937,0.158853868340189,ST
7.96666666666667,-0.46236452460289,-1.74418485164642,9.97881889343262,-0.37347799539566,-0.457319974899292,-0.0685980021953583,-1135.5,12.9000005722046,-892.500061035156,1.76715956528495,-0.0448074643960545,0.17368323505746,ST
8.0,0.0442625805735588,-1.79084002971649,9.59540939331055,-0.533540010452271,-1.02897000312805,-0.259148001670837,-1152.30004882812,10.5,-882.900024414062,1.76806780656043,0.0063451143261635,0.185434102989487,ST
8.03333333333333,-0.0496458671987057,-1.72504436969757,8.95659255981445,-0.396344006061554,-1.15854394435883,-0.137196004390717,-1152.30004882812,14.1000003814697,-875.700012207031,1.76718032860593,-0.0034048931069554,0.190957823536035,ST
8.06666666666667,-0.183629885315895,-1.79502701759338,8.88601207733154,-0.228659987449646,-0.419209986925125,-0.0609759986400604,-1140.30004882812,15.9000005722046,-870.900024414062,1.76700452800815,-0.01950297281382,0.199715393499156,ST
8.1,-0.36725977063179,-1.83988773822784,8.93326568603516,-0.228659987449646,0.228659987449646,0.236281991004944,-1137.90002441406,9.30000019073486,-880.500061035156,1.76510963268136,-0.04070306872009,0.20350203470003,ST
8.13333333333333,-0.694444000720978,-2.04146194458008,9.95549201965332,-0.365855991840363,0.0838419944047928,0.381099998950958,-1142.70007324219,14.7000007629395,-875.700012207031,1.76114407665492,-0.068483703781929,0.202851540945968,ST
8.16666666666667,-0.347521066665649,-2.16288495063782,9.70666408538818,-0.403965979814529,-0.342989981174469,0.0152439996600151,-1145.10009765625,14.1000003814697,-878.100036621094,1.76093442812413,-0.0343779577403037,0.219930068619922,ST
8.2,-0.148339450359344,-2.09888362884521,9.34538555145264,-0.0381099991500378,-0.556405961513519,-0.381099998950958,-1149.90002441406,13.5000009536743,-875.700012207031,1.76385733441545,-0.0143975800391222,0.220997071668841,ST
8.23333333333333,-0.05742172524333,-2.06359314918518,9.31308650970459,0.342989981174469,-0.640248000621796,-0.830797970294952,-1147.5,15.3000001907349,-894.900024414062,1.77081814033797,-0.0046228613699883,0.217466266915593,ST
8.26666666666667,-0.30325847864151,-1.94635725021362,9.45424747467041,0.754577994346619,-0.632625997066498,-0.685979962348938,-1152.30004882812,15.9000005722046,-882.900024414062,1.7769126300468,-0.0300772703743876,0.201751143556891,ST
8.3,-0.136376604437828,-1.86979496479034,9.4554443359375,0.792688012123108,-0.693601965904236,-0.259148001670837,-1147.5,12.9000005722046,-880.500061035156,1.77811328108232,-0.0128858597829816,0.193854275773868,ST
8.33333333333333,-0.0448607243597507,-1.91645002365112,10.0715312957764,0.87652999162674,-0.640248000621796,0.243903994560242,-1152.30004882812,11.7000007629395,-880.500061035156,1.77392888259963,-0.0033588770702911,0.186505755726948,ST
8.36666666666667,0.106469452381134,-1.95652568340302,9.99257659912109,0.716467976570129,-0.304879993200302,0.67835795879364,-1157.10009765625,11.7000007629395,-878.100036621094,1.76634045920221,0.0107418199554817,0.19211069647118,ST
8.4,0.190209463238716,-1.87338376045227,9.74015998840332,0.663114011287689,0.0076219998300075,0.800309956073761,-1145.10009765625,18.3000011444092,-880.500061035156,1.75788406560537,0.0188946034994594,0.188885892078835,ST
8.43333333333333,0.1722651720047,-1.7926344871521,9.51645469665527,0.403965979814529,0.0381099991500378,0.685979962348938,-1142.70007324219,9.30000019073486,-873.300048828125,1.75095580978907,0.0175019045014673,0.185508111191971,ST
8.46666666666667,0.336156338453293,-1.59405100345612,8.84593677520752,0.190549999475479,-0.0076219998300075,0.670735955238342,-1135.5,12.9000005722046,-892.500061035156,1.74382136481754,0.0371787798668053,0.178001598221254,ST
8.5,-0.0855344459414482,-1.80340111255646,8.94223785400391,-0.205793991684914,0.602137982845306,1.18903195858002,-1147.5,10.5,-880.500061035156,1.73265210279464,-0.0107814846121799,0.199327134481122,ST
8.53333333333333,-0.189013183116913,-1.76511991024017,9.20601844787598,-0.487807989120483,0.830797970294952,1.50153398513794,-1140.30004882812,17.7000007629395,-892.500061035156,1.71876079128919,-0.0220725995084461,0.19024378754457,ST
8.56666666666667,0.0843381583690643,-1.57849931716919,9.53140830993652,-0.640248000621796,0.182927995920181,1.29574000835419,-1149.90002441406,11.7000007629395,-870.900024414062,1.7056824847051,0.0080198224260498,0.165273682724543,ST
8.6,0.0825437307357788,-2.32199096679688,9.31727313995361,-2.36281991004944,-0.304879993200302,0.129574000835419,-1145.10009765625,12.3000001907349,-885.300048828125,1.70315379901439,0.0090557038358872,0.248303827952708,ST
8.63333333333333,-0.160302311182022,-2.08871531486511,9.27480506896973,-0.0381099991500378,-0.243903994560242,1.59299790859222,-1140.30004882812,15.3000001907349,-863.700012207031,1.68587094693638,-0.017040940724858,0.221541816516836,ST
8.66666666666667,-0.159704178571701,-2.10067820549011,10.2324314117432,0.495429992675781,-0.259148001670837,1.63872992992401,-1142.70007324219,18.3000011444092,-880.500061035156,1.6668901918307,-0.015417711320808,0.201579813593182,ST
8.7,-0.0185424312949181,-1.98164761066437,9.79040431976318,0.952749967575073,-0.259148001670837,1.6844619512558,-1147.5,19.5,-873.300048828125,1.64871328393469,-0.0019988058420059,0.198041973958566,ST
8.73333333333333,0.214135184884071,-1.98344206809998,9.61514854431152,0.899396002292633,-0.381099998950958,1.16616594791412,-1140.30004882812,16.5,-875.700012207031,1.63587131377543,0.022033715816867,0.201903553689272,ST
8.76666666666667,0.261986613273621,-1.97925508022308,9.26344013214111,0.564027965068817,-0.800309956073761,0.708845973014832,-1142.70007324219,18.9000015258789,-878.100036621094,1.62661248894095,0.0287544812231248,0.209550990546763,ST
8.8,0.0251220054924488,-1.95592749118805,9.20123291015625,0.571649968624115,-0.663114011287689,0.419209986925125,-1147.5,15.9000005722046,-892.500061035156,1.62073393528008,0.0036656506545575,0.208461095339309,ST
8.83333333333333,0.0251220054924488,-2.06478953361511,9.26344013214111,0.640248000621796,-0.213415995240211,0.510673999786377,-1154.70007324219,19.5,-873.300048828125,1.61503630509484,0.0028183915850431,0.218189548901775,ST
8.86666666666667,-0.293688207864761,-2.2292788028717,9.86457347869873,0.541162014007568,-0.236281991004944,0.830797970294952,-1142.70007324219,20.7000007629395,-882.900024414062,1.60626823972446,-0.0289239224251411,0.221264886494858,ST
8.9,-0.22968690097332,-1.95951640605927,9.5272216796875,1.13567793369293,-0.6250039935112,0.800309956073761,-1145.10009765625,18.9000015258789,-878.100036621094,1.59658364922591,-0.0228242594869303,0.200843451841018,ST
8.93333333333333,-0.0077758585102856,-1.87218749523163,9.52542686462402,1.6692179441452,-1.11281192302704,0.853663980960846,-1142.70007324219,11.7000007629395,-870.900024414062,1.58530384549203,0.0008093715518506,0.191165902316409,ST
8.96666666666667,-0.128600731492043,-1.58268630504608,9.329833984375,1.93598794937134,-1.21189796924591,1.51677799224854,-1142.70007324219,14.1000003814697,-892.500061035156,1.56615789144685,-0.0119322222384927,0.164631776898238,ST
9.0,0.148937597870827,-1.18611752986908,8.91233062744141,1.35671591758728,-0.655492007732391,1.39482593536377,-1157.10009765625,13.5000009536743,-878.100036621094,1.55082815829091,0.0173605606265493,0.130011492880621,ST
9.03333333333333,-0.30325847864151,-1.3781213760376,9.56071758270264,1.15092194080353,-0.182927995920181,1.81403601169586,-1157.10009765625,12.3000001907349,-885.300048828125,1.53229364349089,-0.0314771353432032,0.141041844745085,ST
9.06666666666667,-0.253014475107193,-1.34223282337189,9.96625804901123,1.03659200668335,-0.0838419944047928,1.62348592281342,-1147.5,11.7000007629395,-878.100036621094,1.51552552929616,-0.0253871534006808,0.131997757758635,ST
9.1,-0.139367312192917,-1.48638522624969,10.3801727294922,1.00610399246216,-0.213415995240211,1.15854394435883,-1157.10009765625,15.9000005722046,-882.900024414062,1.50364552713206,-0.0132130857204911,0.140438276570199,ST
9.13333333333333,0.0167480036616325,-1.1436493396759,9.80296516418457,1.37195992469788,-0.457319974899292,0.769822001457214,-1137.90002441406,22.5,-870.900024414062,1.49501912979912,0.0023257550775364,0.113767015401749,ST
9.16666666666667,-0.0496458671987057,-1.10417187213898,9.473388671875,1.41769194602966,-0.266770005226135,0.190549999475479,-1152.30004882812,14.1000003814697,-878.100036621094,1.49279524115802,-0.0047751128024233,0.11355556045854,ST
9.2,0.196190893650055,-0.920542061328888,9.26164531707764,1.17378795146942,-0.403965979814529,0.0838419944047928,-1145.10009765625,14.1000003814697,-875.700012207031,1.49139644235457,0.02174877575501,0.0970329018691312,ST
9.23333333333333,-0.218322187662125,-0.620274245738983,9.13065242767334,0.586893975734711,-0.0609759986400604,0.0304879993200302,-1140.30004882812,20.1000003814697,-880.500061035156,1.49109058448313,-0.0237292733397144,0.0668161970177188,ST
9.26666666666667,-0.293090045452118,-1.11134958267212,9.53978252410889,-0.0762199983000755,0.602137982845306,0.381099998950958,-1145.10009765625,7.50000047683716,-880.500061035156,1.48888210929812,-0.0316253522055719,0.116073553211916,ST
9.3,-0.0645994395017624,-1.31352198123932,9.61215782165527,-0.556405961513519,0.655492007732391,0.0304879993200302,-1137.90002441406,11.1000003814697,-873.300048828125,1.48986361629347,-0.007806984603794,0.136776141003314,ST
9.33333333333333,0.136376604437828,-1.06648886203766,9.70666408538818,-1.2576299905777,-0.160062000155449,-0.693601965904236,-1152.30004882812,8.70000076293945,-878.100036621094,1.49746760751116,0.0143679219585473,0.11162189897256,ST
9.36666666666667,-0.129198879003525,-2.58098697662354,9.73238468170166,-4.27594184875488,0.228659987449646,-2.38568592071533,-1140.30004882812,18.9000015258789,-887.700012207031,1.52154117117765,-0.0121027130073328,0.26662515606416,ST
9.4,-0.233873903751373,-1.76930689811707,9.56550216674805,-0.990859985351562,0.0914639979600906,-0.792688012123108,-1135.5,14.7000007629395,-887.700012207031,1.52856894959962,-0.0239347747480462,0.184698108501822,ST
9.43333333333333,0.0269164331257343,-1.65984678268433,9.74853420257568,-0.655492007732391,-0.0914639979600906,-0.579271972179413,-1154.70007324219,9.30000019073486,-892.500061035156,1.53450639902808,0.003038548006809,0.169796545370474,ST
9.46666666666667,0.354698777198792,-1.82852303981781,9.84662914276123,-0.487807989120483,-0.350611984729767,-0.503051996231079,-1142.70007324219,14.7000007629395,-894.900024414062,1.53884299845695,0.0361400282393302,0.184422412387623,ST
9.5,0.592759668827057,-1.69274461269379,9.00265026092529,-0.25152599811554,-0.617381989955902,-0.37347799539566,-1142.70007324219,17.1000003814697,-880.500061035156,1.54152393072629,0.0657764141292506,0.186265982297025,ST
9.53333333333333,0.406737208366394,-1.84347665309906,9.01580905914307,-0.0685980021953583,0.304879993200302,-0.556405961513519,-1149.90002441406,17.7000007629395,-882.900024414062,1.54774572030803,0.043849159541839,0.201760883688243,ST
9.56666666666667,0.0155517170205712,-1.91345942020416,9.70546817779541,0.190549999475479,1.03659200668335,-0.724089980125427,-1142.70007324219,21.3000011444092,-892.500061035156,1.55763114528892,6.58270536650163e-05,0.19432752060306,ST
9.6,-0.080151155591011,-1.88594484329224,9.95668792724609,0.632625997066498,0.586893975734711,-0.663114011287689,-1147.5,18.3000011444092,-873.300048828125,1.56553048213684,-0.0086951019951335,0.186110574046181,ST
9.63333333333333,-0.144750595092773,-1.74538123607635,9.36093711853027,1.21951997280121,0.205793991684914,-0.457319974899292,-1145.10009765625,12.3000001907349,-878.100036621094,1.57134890958014,-0.0154070777702769,0.18222255179326,ST
9.66666666666667,-0.0693845823407173,-1.722651720047,9.56191349029541,1.28049600124359,-0.541162014007568,-0.358233988285065,-1137.90002441406,12.9000005722046,-882.900024414062,1.57405134698515,-0.0061087504155434,0.176018085622596,ST
9.7,0.336156338453293,-1.65625786781311,9.3717041015625,0.78506600856781,-1.15092194080353,-0.403965979814529,-1152.30004882812,17.1000003814697,-880.500061035156,1.57590308193954,0.0373753486482058,0.173542240762536,ST
9.73333333333333,-0.138171032071114,-1.61139714717865,8.86926364898682,0.335367977619171,-0.487807989120483,-0.403965979814529,-1133.10009765625,17.7000007629395,-873.300048828125,1.57928054147073,-0.0143409292189302,0.179142887303947,ST
9.76666666666667,-0.199779748916626,-2.01574182510376,9.75212287902832,0.198172003030777,0.846041977405548,0.106707997620106,-1157.10009765625,18.9000015258789,-882.900024414062,1.58041173200185,-0.0215374922504066,0.203465928460425,ST
9.8,-0.151928320527077,-2.10785579681396,9.62711143493652,0.304879993200302,0.891773998737335,0.259148001670837,-1135.5,11.7000007629395,-880.500061035156,1.58001981106972,-0.0170353236781185,0.215006009766857,ST
9.83333333333333,-0.116637878119946,-2.10845398902893,9.79399299621582,0.365855991840363,-0.121951997280121,0.350611984729767,-1149.90002441406,11.1000003814697,-885.300048828125,1.57585297025344,-0.0115639390847325,0.211399265023508,ST
9.86666666666667,-0.224303618073463,-1.95592749118805,9.53200626373291,0.304879993200302,-0.899396002292633,0.342989981174469,-1154.70007324219,10.5,-882.900024414062,1.57039143335052,-0.021621990669993,0.201841973123648,ST
9.9,0.0311034340411425,-2.0970892906189,9.48834228515625,0.160062000155449,-0.800309956073761,0.480185985565186,-1157.10009765625,18.9000015258789,-863.700012207031,1.56389258333314,0.0043650051280172,0.217234557309327,ST
9.93333333333333,-0.0562254376709461,-1.86381351947784,8.8997688293457,0.358233988285065,-0.67835795879364,0.800309956073761,-1152.30004882812,13.5000009536743,-890.100036621094,1.55433037421835,-0.0053028202616357,0.205813939912566,ST
9.96666666666667,-0.233275756239891,-1.9086742401123,9.08997917175293,0.609759986400604,0.0990860015153885,1.40244793891907,-1145.10009765625,18.3000011444092,-882.900024414062,1.539188998598,-0.025772907000499,0.205843874703291,ST
10.0,-0.509617805480957,-2.03368616104126,9.87354564666748,0.381099998950958,0.0762199983000755,1.42531394958496,-1135.5,18.9000015258789,-880.500061035156,1.52493711026255,-0.0511217652586328,0.20234684155841,ST
10.0333333333333,-0.400157660245895,-2.03548049926758,9.71982288360596,0.236281991004944,-0.350611984729767,1.58537602424622,-1142.70007324219,6.90000009536743,-875.700012207031,1.50838219945912,-0.0402479813715204,0.205902872712458,ST
10.0666666666667,-0.232677608728409,-2.0731635093689,9.77903938293457,0.228659987449646,-1.21189796924591,1.00610399246216,-1137.90002441406,14.7000007629395,-878.100036621094,1.49572145134416,-0.0215797603048333,0.208459887141336,ST
10.1,-0.0251220054924488,-1.87099123001099,9.20242977142334,0.228659987449646,-1.42531394958496,1.02134799957275,-1140.30004882812,17.1000003814697,-882.900024414062,1.4823051271941,-0.0006072657810371,0.200186323752627,ST
10.1333333333333,-0.381615221500397,-2.03847122192383,9.84124660491943,0.335367977619171,-0.769822001457214,1.48628997802734,-1147.5,9.90000057220459,-878.100036621094,1.46577682469466,-0.0371342993338454,0.203555257185415,ST
10.1666666666667,0.519786238670349,-1.98463833332062,9.46082782745361,0.868907988071442,-0.37347799539566,1.57775402069092,-1137.90002441406,15.3000001907349,-875.700012207031,1.44862065139017,0.0537280799347311,0.205408833965165,ST
10.2,0.464757084846497,-1.82493424415588,9.31069374084473,0.861285984516144,-0.190549999475479,1.44817996025085,-1137.90002441406,15.3000001907349,-897.300048828125,1.43375833212796,0.0487925389641345,0.192181218215932,ST
10.2333333333333,0.0406737215816975,-1.07247030735016,9.11151218414307,-0.403965979814529,0.617381989955902,1.27287399768829,-1140.30004882812,12.9000005722046,-890.100036621094,1.42347774459487,0.0031348826057131,0.117932817135889,ST
10.2666666666667,-0.153722748160362,-2.56244444847107,9.32445049285889,-1.63872992992401,1.44817996025085,0.175305992364883,-1152.30004882812,15.3000001907349,-875.700012207031,1.42628918938085,-0.0183970909878023,0.270941776866208,ST
10.3,-0.266173630952835,-1.88415038585663,9.44467735290527,-0.198172003030777,0.304879993200302,1.45580196380615,-1125.90002441406,15.3000001907349,-878.100036621094,1.41039791731878,-0.0286438938758915,0.19724039715229,ST
10.3333333333333,-0.385204076766968,-1.89790761470795,9.65881252288818,0.381099998950958,-0.0685980021953583,1.40244793891907,-1149.90002441406,17.1000003814697,-882.900024414062,1.3951508209656,-0.0394608128743959,0.193263908091029,ST
10.3666666666667,0.125610023736954,-1.91046869754791,9.35734844207764,0.685979962348938,-0.632625997066498,1.20427596569061,-1137.90002441406,14.7000007629395,-887.700012207031,1.38166854454958,0.0137763485332551,0.200228123830998,ST
10.4,0.156713455915451,-1.76691436767578,9.11809158325195,0.899396002292633,-0.967993974685669,1.05183601379395,-1133.10009765625,6.90000009536743,-882.900024414062,1.36905476240608,0.0181808878048011,0.18988525545457,ST
10.4333333333333,0.0825437307357788,-1.62814521789551,9.34478759765625,1.27287399768829,-0.556405961513519,0.792688012123108,-1152.30004882812,19.5,-878.100036621094,1.36008972505503,0.0094307508842527,0.170306125124705,ST
10.4666666666667,0.114245310425758,-1.49475932121277,9.30411434173584,1.63872992992401,-0.647870004177094,1.42531394958496,-1149.90002441406,8.70000076293945,-882.900024414062,1.34438038594992,0.0128495874693834,0.156478435699192,ST
10.5,-0.622068703174591,-1.56055498123169,10.4196510314941,1.73781597614288,-0.0228659994900227,2.00458598136902,-1130.70007324219,12.3000001907349,-880.500061035156,1.32439492987537,-0.0593890897869108,0.145435614917121,ST
10.5333333333333,-0.471934795379639,-1.52526462078094,10.2868623733521,1.95123195648193,0.350611984729767,2.20275783538818,-1147.5,19.5,-890.100036621094,1.30322470862714,-0.0465158273642189,0.143623258490986,ST
10.5666666666667,0.40853163599968,-1.1777435541153,9.58524131774902,2.30946588516235,-0.960371971130371,1.90549993515015,-1133.10009765625,14.7000007629395,-878.100036621094,1.2803638391343,0.0435106901276516,0.118389233481312,ST
10.6,0.41750380396843,-1.16278994083405,9.09835243225098,1.46342396736145,-1.60824191570282,1.2423859834671,-1149.90002441406,18.9000015258789,-868.500061035156,1.26453552897271,0.0479986472706947,0.124674675368597,ST
10.6333333333333,0.336754500865936,-1.02641332149506,8.52353763580322,0.586893975734711,-0.746955990791321,0.716467976570129,-1149.90002441406,20.7000007629395,-875.700012207031,1.25624384369552,0.0403571020259636,0.118880407179713,ST
10.6666666666667,0.117834165692329,-1.29976463317871,9.09356784820557,-0.442075997591019,-0.160062000155449,-0.0762199983000755,-1137.90002441406,14.7000007629395,-885.300048828125,1.25624014699206,0.0131424981758996,0.142723403686166,ST
10.7,-0.372643083333969,-1.40623414516449,9.27360820770264,-0.480185985565186,0.426831990480423,-0.121951997280121,-1145.10009765625,17.7000007629395,-870.900024414062,1.25826649854218,-0.0403951193846493,0.151340072588648,ST
10.7333333333333,-0.152526453137398,-1.59106028079987,10.0422220230103,-0.480185985565186,0.129574000835419,-0.289635986089706,-1140.30004882812,11.7000007629395,-887.700012207031,1.26152885786428,-0.0151628084533419,0.157972325474917,ST
10.7666666666667,0.232079476118088,-1.53842377662659,9.29095458984375,-0.419209986925125,-1.34909391403198,-0.983237981796265,-1147.5,12.3000001907349,-885.300048828125,1.27006596737593,0.027228976290282,0.164788025994391,ST
10.8,-0.110058307647705,-1.45647811889648,9.7419548034668,0.0228659994900227,-1.18903195858002,-0.891773998737335,-1140.30004882812,15.9000005722046,-870.900024414062,1.27750069870875,-0.0088632872423808,0.148389470147529,ST
10.8333333333333,-0.300865918397903,-1.55158281326294,9.87833118438721,0.617381989955902,-0.236281991004944,-0.525918006896973,-1159.5,18.9000015258789,-894.900024414062,1.28280047919804,-0.0295149978190037,0.154738984035023,ST
10.8666666666667,-0.167480036616325,-1.23038005828857,10.5440645217896,0.891773998737335,-0.274392008781433,-0.525918006896973,-1142.70007324219,15.9000005722046,-880.500061035156,1.28760921692518,-0.0151992926688805,0.114633633021826,ST
10.9,-0.0089721446856856,-0.945065915584564,9.56430625915527,1.49391198158264,-0.144817993044853,-0.37347799539566,-1137.90002441406,13.5000009536743,-880.500061035156,1.2912128324271,-0.0006302687580103,0.0958989857948348,ST
10.9333333333333,0.238659039139748,-0.96958976984024,9.59122276306152,1.6768399477005,0.0762199983000755,-0.891773998737335,-1154.70007324219,5.70000028610229,-875.700012207031,1.30010875235985,0.0247526623706105,0.0977825682934298,ST
10.9666666666667,-0.0113647161051631,-1.06768524646759,9.40460205078125,0.960371971130371,0.342989981174469,-1.35671591758728,-1149.90002441406,11.7000007629395,-873.300048828125,1.31428886709386,-0.0015131367351732,0.111361031546948,ST
11.0,-0.316417634487152,-1.12211620807648,9.91661262512207,0.602137982845306,0.914639949798584,-1.72257196903229,-1142.70007324219,17.1000003814697,-875.700012207031,1.33326033459838,-0.0329227214894306,0.111728477041404,ST
11.0333333333333,-0.119030453264713,-1.26507234573364,9.83885383605957,0.381099998950958,0.693601965904236,-1.97409796714783,-1133.10009765625,18.3000011444092,-885.300048828125,1.35680203680286,-0.0127687906400502,0.127253151573919,ST
11.0666666666667,0.0957028716802597,-1.16099548339844,10.0099229812622,0.0914639979600906,-0.297257989645004,-2.03507399559021,-1152.30004882812,8.10000038146973,-890.100036621094,1.37736740681744,0.0104038419057026,0.115282059535742,ST
11.1,0.175854027271271,-1.08862018585205,9.02119255065918,0.221037998795509,-0.823175966739655,-1.55488801002502,-1142.70007324219,11.7000007629395,-870.900024414062,1.39224186240365,0.0210930323693688,0.119650829887887,ST
11.1333333333333,0.601133704185486,-1.19329524040222,8.71494293212891,-0.114329993724823,-0.914639949798584,-1.60061991214752,-1140.30004882812,14.7000007629395,-870.900024414062,1.40671804940617,0.0701575559253235,0.136087623988098,ST
11.1666666666667,-0.177648469805717,-1.23875403404236,9.04392147064209,-0.236281991004944,0.0457319989800453,-0.548784017562866,-1145.10009765625,15.9000005722046,-885.300048828125,1.41239454674658,-0.0193410203015773,0.136554055971122,ST
11.2,-0.598142981529236,-1.52945160865784,9.92438793182373,-0.25152599811554,1.30336201190948,-0.25152599811554,-1130.70007324219,12.9000005722046,-878.100036621094,1.41807413227201,-0.0616671917927238,0.153390461020629,ST
11.2333333333333,-0.0927121639251709,-1.7166702747345,10.0822982788086,-0.548784017562866,0.701223969459534,0.0381099991500378,-1137.90002441406,6.90000009536743,-873.300048828125,1.41936682386227,-0.0103204667696979,0.16959575454287,ST
11.2666666666667,0.144152462482452,-1.62515449523926,9.97642707824707,-0.693601965904236,-0.685979962348938,0.0,-1137.90002441406,10.5,-894.900024414062,1.41830414604092,0.0154227429423626,0.162699677983492,ST
11.3,0.312230616807938,-1.75794219970703,9.80535793304443,-0.67835795879364,-1.41769194602966,0.144817993044853,-1140.30004882812,13.5000009536743,-878.100036621094,1.41408045975156,0.03370947646342,0.17859440211181,ST
11.3333333333333,0.902597725391388,-1.50432956218719,8.64795112609863,-0.594515979290009,-1.95885396003723,-0.129574000835419,-1147.5,18.9000015258789,-878.100036621094,1.4128376140274,0.105820199022213,0.173308858621737,ST
11.3666666666667,0.177050322294235,-1.69573533535004,9.71683216094971,-0.259148001670837,-0.503051996231079,0.381099998950958,-1152.30004882812,12.9000005722046,-868.500061035156,1.40756212904318,0.0187192522324736,0.173242851169398,ST
11.4,0.376830071210861,-1.93200182914734,9.91362190246582,-0.175305992364883,1.07470202445984,0.533540010452271,-1152.30004882812,15.9000005722046,-890.100036621094,1.40376213728971,0.0352605782576908,0.192782115569101,ST
11.4333333333333,0.504832684993744,-1.86381351947784,10.058970451355,0.0152439996600151,-0.0685980021953583,0.434453994035721,-1133.10009765625,15.3000001907349,-882.900024414062,1.3996051530532,0.0492765190352703,0.183229151129544,ST
11.4666666666667,0.150732025504112,-1.56354570388794,8.45833969116211,0.472563982009888,-0.884151995182037,0.3125019967556,-1135.5,17.7000007629395,-875.700012207031,1.39438387234633,0.0189538031038606,0.181980518288101,ST
11.5,0.192602038383484,-1.84527111053467,9.09895133972168,0.327746003866196,0.335367977619171,0.106707997620106,-1145.10009765625,16.5,-897.300048828125,1.3935398206617,0.0201310917572859,0.199508593790752,ST
11.5333333333333,-0.372044920921326,-1.78485858440399,9.5272216796875,0.442075997591019,0.320124000310898,1.05945801734924,-1137.90002441406,9.30000019073486,-873.300048828125,1.38304940156733,-0.0392189963635689,0.184366435149385,ST
11.5666666666667,-0.425877809524536,-1.83749520778656,9.81612396240234,0.411587983369827,0.350611984729767,0.899396002292633,-1133.10009765625,14.1000003814697,-875.700012207031,1.37397899785369,-0.0435067956189106,0.184269345619563,ST
11.6,0.299669623374939,-1.88833737373352,9.59660625457764,0.190549999475479,-0.823175966739655,0.823175966739655,-1140.30004882812,17.1000003814697,-897.300048828125,1.36337970985645,0.0317300637067195,0.194005567538157,ST
11.6333333333333,0.318810194730759,-2.14075374603271,9.27958965301514,0.106707997620106,-1.14329993724823,0.701223969459534,-1130.70007324219,14.1000003814697,-878.100036621094,1.3525655994183,0.035131583663,0.226575518709912,ST
11.6666666666667,0.337950766086578,-2.13357591629028,9.54516506195068,-0.0457319989800453,-0.922261953353882,0.259148001670837,-1152.30004882812,11.7000007629395,-878.100036621094,1.34810015231087,0.0360104978177157,0.220022576294149,ST
11.7,-0.229088753461838,-2.23406410217285,10.0529890060425,0.0609759986400604,-0.228659987449646,0.411587983369827,-1147.5,13.5000009536743,-882.900024414062,1.34343506344519,-0.0219650229390819,0.21855287075732,ST
11.7333333333333,-0.192602038383484,-2.08153748512268,9.47458457946777,0.685979962348938,0.510673999786377,0.762199997901917,-1152.30004882812,20.1000003814697,-866.100036621094,1.33614427633291,-0.0210070381571355,0.215041546952562,ST
11.7666666666667,-0.231481328606606,-1.92661845684052,9.36632061004639,0.937505960464478,0.213415995240211,0.922261953353882,-1149.90002441406,21.3000011444092,-875.700012207031,1.3266205887984,-0.0248877485300522,0.201199123527044,ST
11.8,0.824839174747467,-1.69394087791443,8.68204498291016,0.846041977405548,-1.47866797447205,0.0685980021953583,-1140.30004882812,14.7000007629395,-875.700012207031,1.32268103121309,0.0953996906041853,0.191276771931758,ST
11.8333333333333,0.186620607972145,-1.57491040229797,8.4828634262085,1.08994603157043,-1.05183601379395,0.541162014007568,-1161.90002441406,15.9000005722046,-878.100036621094,1.31534442811471,0.0233149339004094,0.181702537111429,ST
11.8666666666667,-0.355296939611435,-1.57849931716919,10.0135116577148,0.899396002292633,0.289635986089706,0.663114011287689,-1147.5,9.30000019073486,-887.700012207031,1.30910575739987,-0.0356690324588147,0.154762895341219,ST
11.9,-0.144750595092773,-1.62694883346558,10.130747795105,1.05945801734924,0.975615978240967,1.51677799224854,-1149.90002441406,11.1000003814697,-885.300048828125,1.29460154886338,-0.0162114154891941,0.157347106237905,ST
11.9333333333333,-0.0640012994408607,-1.53004968166351,10.1911602020264,0.762199997901917,0.213415995240211,1.34909391403198,-1142.70007324219,14.1000003814697,-882.900024414062,1.28105334423126,-0.006932246572094,0.147682926372381,ST
11.9666666666667,0.130395174026489,-1.56115317344666,9.65941047668457,0.411587983369827,-0.868907988071442,1.18140995502472,-1140.30004882812,12.9000005722046,-897.300048828125,1.26745135557426,0.0144796061644808,0.159539924908141,ST
12.0,0.594554126262665,-1.60421943664551,9.27719783782959,0.274392008781433,-0.724089980125427,0.556405961513519,-1142.70007324219,18.9000015258789,-894.900024414062,1.25991160278208,0.0641103567465268,0.170815112867959,ST
12.0333333333333,0.367857933044434,-1.44989860057831,8.82440280914307,0.137196004390717,-0.472563982009888,0.457319974899292,-1140.30004882812,18.3000011444092,-875.700012207031,1.25480610356764,0.0418128185845737,0.162655756797268,ST
12.0666666666667,0.433055520057678,-1.41879510879517,8.69879341125488,0.350611984729767,0.0990860015153885,0.503051996231079,-1157.10009765625,16.5,-878.100036621094,1.24972603963856,0.0487779732467304,0.161108984447749,ST
12.1,-0.226098045706749,-1.62874329090118,9.67675685882568,0.647870004177094,1.14329993724823,0.769822001457214,-1142.70007324219,18.9000015258789,-885.300048828125,1.24313059086604,-0.0252084406473225,0.165595278605246,ST
12.1333333333333,-0.0813474431633949,-1.54500329494476,9.54396915435791,0.602137982845306,0.571649968624115,0.708845973014832,-1145.10009765625,12.3000001907349,-892.500061035156,1.23603398778907,-0.0095990030252381,0.159430750660823,ST
12.1666666666667,0.116637878119946,-1.78605496883392,10.1086158752441,0.297257989645004,-0.487807989120483,0.0228659994900227,-1133.10009765625,17.1000003814697,-878.100036621094,1.23489003393574,0.0121774103130969,0.174353879797928,ST
12.2,0.382213354110718,-1.83749520778656,10.1056251525879,0.396344006061554,-1.09756803512573,-0.0990860015153885,-1137.90002441406,15.3000001907349,-870.900024414062,1.23361689882076,0.0390903838420305,0.179175321313875,ST
12.2333333333333,0.61847984790802,-1.67719292640686,9.75631046295166,0.487807989120483,-1.91312193870544,-0.297257989645004,-1149.90002441406,9.90000057220459,-890.100036621094,1.23348046969006,0.0657542292804248,0.169403916920894,ST
12.2666666666667,0.599339246749878,-1.47561872005463,9.45185565948486,0.724089980125427,-1.39482593536377,-0.190549999475479,-1149.90002441406,5.10000038146973,-882.900024414062,1.23365722151365,0.0650259453859318,0.153613722610071,ST
12.3,0.692051410675049,-1.23396897315979,8.70178413391113,0.830797970294952,-0.762199997901917,0.25152599811554,-1133.10009765625,15.9000005722046,-863.700012207031,1.23032702559709,0.0798253307302029,0.139477320665925,ST
12.3333333333333,0.0544310100376606,-1.19090270996094,9.09057712554932,0.868907988071442,1.04421401023865,1.29574000835419,-1152.30004882812,17.7000007629395,-870.900024414062,1.2176236458949,0.0038636141721727,0.128757347756438,ST
12.3666666666667,-0.0628050118684769,-1.41879510879517,9.4853515625,0.503051996231079,1.35671591758728,1.37195992469788,-1145.10009765625,17.7000007629395,-875.700012207031,1.20493343914011,-0.009236829518482,0.14757208433999,ST
12.4,0.395970642566681,-1.66762256622314,9.98240852355957,0.0762199983000755,0.0533539988100529,0.891773998737335,-1149.90002441406,14.1000003814697,-873.300048828125,1.19534063257813,0.0387295580877128,0.16544305046952,ST
12.4333333333333,0.431261092424393,-1.54859220981598,9.97283744812012,0.350611984729767,-0.746955990791321,0.0,-1149.90002441406,14.7000007629395,-882.900024414062,1.19444110060134,0.0439908752705603,0.153454339121957,ST
12.4666666666667,0.169274464249611,-1.64309871196747,10.0398302078247,0.640248000621796,-0.670735955238342,-0.541162014007568,-1161.90002441406,14.7000007629395,-885.300048828125,1.19887871349984,0.0179528490546319,0.161086610147804,ST
12.5,0.215929612517357,-1.1155366897583,9.3896484375,0.754577994346619,-0.548784017562866,-0.495429992675781,-1142.70007324219,9.90000057220459,-873.300048828125,1.20439982172473,0.0238823229409582,0.116930221711258,ST
12.5333333333333,-0.323595345020294,-1.05452609062195,8.97573375701904,1.06708002090454,0.975615978240967,-0.0304879993200302,-1145.10009765625,13.5000009536743,-885.300048828125,1.20616516817626,-0.0374307098754414,0.115098496290433,ST
12.5666666666667,-0.43724250793457,-1.23456704616547,9.23831844329834,0.655492007732391,1.55488801002502,-0.0152439996600151,-1149.90002441406,9.90000057220459,-880.500061035156,1.20943706137391,-0.0495557103772615,0.131711115662133,ST
12.6,-0.456981241703033,-1.37034559249878,10.0793075561523,0.137196004390717,1.31860601902008,0.518296003341675,-1140.30004882812,15.9000005722046,-880.500061035156,1.20616696388294,-0.0472988610501601,0.13485827135786,ST
12.6333333333333,0.0430662930011749,-1.61737859249115,9.34538555145264,-0.297257989645004,0.0762199983000755,-0.518296003341675,-1142.70007324219,14.7000007629395,-870.900024414062,1.21237409684914,0.0045257330301633,0.171857061521052,ST
12.6666666666667,0.48449581861496,-1.67779099941254,9.88072395324707,-0.724089980125427,-1.02897000312805,-0.754577994346619,-1137.90002441406,19.5,-885.300048828125,1.2190415755736,0.0502774685597902,0.169414884402924,ST
12.7,-0.266173630952835,-1.57550859451294,9.69589710235596,-0.221037998795509,-0.937505960464478,-0.541162014007568,-1135.5,9.30000019073486,-890.100036621094,1.22307019316626,-0.0252673167982967,0.16149276652134,ST
12.7333333333333,-0.241051614284515,-1.69812786579132,9.425537109375,-0.0,0.701223969459534,-0.259148001670837,-1142.70007324219,12.9000005722046,-882.900024414062,1.22741507408452,-0.0262873623920869,0.178255264651962,ST
12.7666666666667,-0.03828115016222,-1.75136256217957,9.24549579620361,-0.0381099991500378,0.907018005847931,0.228659987449646,-1152.30004882812,25.5000019073486,-890.100036621094,1.22696248648908,-0.0057130631707938,0.187269799325422,ST
12.8,-0.956430613994598,-1.6203693151474,10.3598365783691,0.0228659994900227,0.106707997620106,0.6250039935112,-1137.90002441406,14.1000003814697,-882.900024414062,1.2192092638266,-0.0912497011373852,0.155040326448382,ST
12.8333333333333,0.0520384386181831,-1.50971281528473,8.90395641326904,0.160062000155449,0.0533539988100529,0.327746003866196,-1145.10009765625,14.7000007629395,-880.500061035156,1.21640874587687,0.0055200835562297,0.167674238656401,ST
12.8666666666667,0.66334056854248,-1.63711726665497,9.29454326629639,-0.152439996600151,-1.57013201713562,0.0914639979600906,-1140.30004882812,17.7000007629395,-882.900024414062,1.21249485927715,0.0727925473583413,0.174655928770968,ST
12.9,0.24224790930748,-1.50253510475159,8.98291110992432,0.160062000155449,-2.00458598136902,0.602137982845306,-1137.90002441406,18.9000015258789,-885.300048828125,1.20329530046908,0.0299012371851643,0.165507715233113,ST
12.9333333333333,0.424083352088928,-1.51449799537659,8.77894401550293,0.137196004390717,-0.87652999162674,0.495429992675781,-1145.10009765625,15.9000005722046,-892.500061035156,1.1964365796586,0.0489145173335517,0.170644398186256,ST
12.9666666666667,0.116039738059044,-1.8566358089447,9.87354564666748,0.106707997620106,0.182927995920181,0.823175966739655,-1140.30004882812,12.9000005722046,-870.900024414062,1.18791983428573,0.0109987921970835,0.185688732238898,ST
13.0,-0.0759641602635384,-1.85962653160095,9.76408576965332,0.114329993724823,0.586893975734711,0.823175966739655,-1145.10009765625,23.1000003814697,-880.500061035156,1.18001546772822,-0.0089107346706803,0.187990702138455,ST
13.0333333333333,0.43425178527832,-2.0671820640564,10.1026344299316,-0.190549999475479,-0.754577994346619,-0.0304879993200302,-1142.70007324219,14.7000007629395,-890.100036621094,1.1785253183891,0.0433650104366833,0.202167738076653,ST
13.0666666666667,0.869699895381927,-1.79622340202332,8.62163257598877,-0.0076219998300075,-2.080806016922,-0.78506600856781,-1152.30004882812,21.3000011444092,-878.100036621094,1.18186480775233,0.102225653239796,0.205350459150849,ST
13.1,1.00009500980377,-1.87278568744659,8.83935642242432,0.0381099991500378,-1.53964400291443,-1.16616594791412,-1157.10009765625,17.7000007629395,-878.100036621094,1.18995558454917,0.11327766005972,0.208549598907327,ST
13.1333333333333,0.683677434921265,-1.84527111053467,8.83457183837891,0.198172003030777,-0.533540010452271,-0.602137982845306,-1133.10009765625,17.7000007629395,-887.700012207031,1.19503630147074,0.076760576563999,0.205500792311163,ST
13.1666666666667,0.159106031060219,-1.83390629291534,9.64864444732666,0.350611984729767,0.0381099991500378,0.106707997620106,-1154.70007324219,12.9000005722046,-882.900024414062,1.19477587935183,0.0161433768988139,0.187232756431156,ST
13.2,-0.221312895417213,-2.08811712265015,10.1540746688843,0.617381989955902,0.762199997901917,1.36433792114258,-1137.90002441406,15.3000001907349,-875.700012207031,1.18262961951382,-0.0230966265604378,0.201680320354215,ST
13.2333333333333,0.540721237659454,-2.12041687965393,10.2503757476807,0.381099998950958,-0.274392008781433,1.01372599601746,-1147.5,17.1000003814697,-882.900024414062,1.17158931970986,0.0516680400215902,0.203412675195539,ST
13.2666666666667,0.308043628931046,-2.20475506782532,10.2713108062744,0.396344006061554,-0.663114011287689,1.12043392658234,-1154.70007324219,20.1000003814697,-878.100036621094,1.15718624244064,0.0300439760328842,0.210813995824447,ST
13.3,0.797922730445862,-1.47920751571655,7.91223526000977,0.655492007732391,-0.350611984729767,0.640248000621796,-1149.90002441406,11.1000003814697,-878.100036621094,1.15116125992447,0.0991524919570127,0.18381449237297,ST
13.3333333333333,-0.0699827298521996,-1.88714110851288,8.96257400512695,0.762199997901917,1.92074394226074,0.960371971130371,-1154.70007324219,15.9000005722046,-873.300048828125,1.14435858009484,-0.0111832863469236,0.206169685491362,ST
13.3666666666667,-0.610105812549591,-1.68137991428375,8.90455436706543,0.640248000621796,1.93598794937134,0.823175966739655,-1137.90002441406,15.3000001907349,-870.900024414062,1.13930619257407,-0.0707669583227617,0.185467713333156,ST
13.4,-1.16338813304901,-1.93319809436798,10.2264499664307,0.716467976570129,1.79117000102997,1.18903195858002,-1145.10009765625,11.1000003814697,-882.900024414062,1.13121766517528,-0.114751194972011,0.185415969673204,ST
13.4333333333333,-0.595152258872986,-1.83031749725342,10.7976770401001,0.815553963184357,-0.167683988809586,0.708845973014832,-1147.5,12.9000005722046,-892.500061035156,1.12199565744803,-0.0542260066466068,0.166427846255464,ST
13.4666666666667,-0.553880393505096,-2.02770471572876,11.6009826660156,0.754577994346619,-1.62348592281342,0.6250039935112,-1140.30004882812,18.3000011444092,-885.300048828125,1.11337643713957,-0.0443983257722945,0.171648954863158,ST
13.5,1.4481041431427,-1.54978847503662,9.10852146148682,0.762199997901917,-3.63569402694702,0.0381099991500378,-1142.70007324219,17.1000003814697,-882.900024414062,1.10574208092636,0.161594749365169,0.167388530931091,ST
13.5333333333333,1.11613476276398,-1.45946884155273,8.53250980377197,0.556405961513519,-3.46800994873047,-0.114329993724823,-1149.90002441406,15.3000001907349,-875.700012207031,1.09928439660347,0.134236902789243,0.168548448380692,ST
13.5666666666667,0.954038023948669,-1.20705246925354,7.90445947647095,0.46494197845459,-0.403965979814529,0.228659987449646,-1154.70007324219,14.1000003814697,-878.100036621094,1.0979817365527,0.119399763293834,0.150796397075977,ST
13.6,-0.372044920921326,-1.53543305397034,9.80117034912109,0.541162014007568,2.14178204536438,1.05945801734924,-1152.30004882812,8.10000038146973,-880.500061035156,1.09001342547975,-0.0413932468140755,0.154398088882169,ST
13.6333333333333,0.840390861034393,-1.49057233333588,9.02896785736084,0.259148001670837,0.342989981174469,0.411587983369827,-1154.70007324219,14.1000003814697,-882.900024414062,1.0859786226398,0.0907716673637,0.163208469957219,ST
13.6666666666667,-0.37623193860054,-1.63412654399872,9.80236721038818,0.259148001670837,0.129574000835419,0.815553963184357,-1154.70007324219,14.7000007629395,-880.500061035156,1.077851122064,-0.0382020761257516,0.164683581108677,ST
13.7,-0.0293090064078569,-1.70410931110382,9.6701774597168,-0.0990860015153885,-0.137196004390717,0.320124000310898,-1147.5,12.3000001907349,-887.700012207031,1.07431820377662,-0.002861260481944,0.174599167561271,ST
13.7333333333333,0.220714762806892,-1.7926344871521,9.96027660369873,-0.167683988809586,-0.3125019967556,0.480185985565186,-1152.30004882812,20.1000003814697,-875.700012207031,1.06884091159303,0.0221751750208703,0.178382182822886,ST
13.7666666666667,-0.283519774675369,-1.70351123809814,9.47637939453125,-0.0304879993200302,-0.144817993044853,0.708845973014832,-1140.30004882812,15.9000005722046,-887.700012207031,1.06133287448722,-0.0293700569799756,0.177881101302424,ST
13.8,0.0640012994408607,-2.02531218528748,10.5907192230225,0.0609759986400604,0.594515979290009,0.602137982845306,-1137.90002441406,20.7000007629395,-878.100036621094,1.05602801979195,0.0047080163970299,0.188847168843308,ST
13.8333333333333,0.132189601659775,-1.68018364906311,9.67376613616943,0.403965979814529,-0.807931959629059,0.746955990791321,-1145.10009765625,9.30000019073486,-875.700012207031,1.04706457006916,0.0146221654149708,0.171299168936449,ST
13.8666666666667,0.421092659235001,-1.67779099941254,8.94044303894043,0.457319974899292,-0.891773998737335,0.670735955238342,-1154.70007324219,8.70000076293945,-882.900024414062,1.03793755858521,0.0475492630888022,0.184765481900398,ST
13.9,0.291295617818832,-1.62515449523926,8.86328220367432,0.381099998950958,-0.754577994346619,0.716467976570129,-1147.5,4.5,-885.300048828125,1.02924643502351,0.0333964882133297,0.180730687573049,ST
13.9333333333333,0.0927121639251709,-1.69095015525818,9.59182071685791,0.396344006061554,-0.175305992364883,0.990859985351562,-1145.10009765625,17.1000003814697,-868.500061035156,1.01890567440957,0.0095385381608919,0.173828183778942,ST
13.9666666666667,0.113049022853374,-1.72085738182068,9.75451564788818,0.640248000621796,-0.0609759986400604,1.22714197635651,-1149.90002441406,12.3000001907349,-880.500061035156,1.00619538979952,0.0111465398329466,0.173526193331636,ST
14.0,0.0448607243597507,-1.61020088195801,9.34418964385986,0.701223969459534,-0.335367977619171,1.17378795146942,-1147.5,14.1000003814697,-882.900024414062,0.993600921396497,0.0049672037632065,0.169434907745779,ST
14.0333333333333,0.028710862621665,-1.69872605800629,10.0171003341675,0.457319974899292,-0.37347799539566,0.853663980960846,-1152.30004882812,18.3000011444092,-894.900024414062,0.984220443589621,0.0032219279763435,0.167193041003835,ST
14.0666666666667,0.0143554313108325,-1.56952714920044,9.17910194396973,0.548784017562866,-0.388722002506256,1.06708002090454,-1149.90002441406,13.5000009536743,-880.500061035156,0.972622552295473,0.0018992728685559,0.168396404262661,ST
14.1,0.519188106060028,-1.59524726867676,9.18986892700195,-0.0838419944047928,-0.922261953353882,0.0990860015153885,-1147.5,16.5,-882.900024414062,0.969600779338627,0.0571486704228044,0.172045798192191,ST
14.1333333333333,-0.0496458671987057,-1.70769822597504,9.63907432556152,-0.0,-0.495429992675781,0.518296003341675,-1147.5,20.1000003814697,-863.700012207031,0.963326130586528,-0.0043322954497699,0.175338100458878,ST
14.1666666666667,0.745884299278259,-1.65865051746368,9.88012599945068,0.0990860015153885,-0.891773998737335,-0.457319974899292,-1157.10009765625,14.1000003814697,-892.500061035156,0.966993999830679,0.0759553447853508,0.166116414748409,ST
14.2,0.41451308131218,-1.30634427070618,8.680251121521,0.594515979290009,-1.37958192825317,-0.160062000155449,-1147.5,21.3000011444092,-878.100036621094,0.96723719818748,0.0496243177089892,0.14835161603803,ST
14.2333333333333,-0.215331465005875,-1.58149003982544,9.41477012634277,0.746955990791321,1.34909391403198,-0.167683988809586,-1149.90002441406,11.7000007629395,-880.500061035156,0.971098022929447,-0.0247712303987715,0.165126372787325,ST
14.2666666666667,0.174059599637985,-1.52287197113037,9.6103630065918,0.609759986400604,1.07470202445984,0.0152439996600151,-1135.5,14.7000007629395,-875.700012207031,0.972592807026751,0.0159993106709488,0.156092986602191,ST
14.3,-0.117236025631428,-1.57132160663605,10.1128034591675,0.647870004177094,0.167683988809586,-0.0076219998300075,-1145.10009765625,17.1000003814697,-890.100036621094,0.972990619439038,-0.0117215645043204,0.153019007691457,ST
14.3333333333333,-0.154919028282166,-1.23157632350922,8.86148834228516,0.571649968624115,-0.472563982009888,0.0304879993200302,-1145.10009765625,11.1000003814697,-875.700012207031,0.971836822181969,-0.0165016694605426,0.137104678507742,ST
14.3666666666667,-0.111852735280991,-1.56952714920044,9.91840648651123,0.160062000155449,0.236281991004944,0.152439996600151,-1137.90002441406,16.5,-866.100036621094,0.970944447262773,-0.011590699774028,0.156646368896722,ST
14.4,-0.0855344459414482,-1.61977112293243,9.7000846862793,-0.221037998795509,-0.396344006061554,0.381099998950958,-1145.10009765625,17.1000003814697,-887.700012207031,0.966027669394978,-0.0081259035570102,0.165835177335304,ST
14.4333333333333,0.214733332395554,-1.56354570388794,9.49312686920166,-0.342989981174469,-0.602137982845306,0.0838419944047928,-1154.70007324219,15.9000005722046,-880.500061035156,0.96422923730201,0.0233051692278043,0.163844805841249,ST
14.4666666666667,-0.199181616306305,-1.68616509437561,10.2354221343994,-0.160062000155449,-0.129574000835419,0.221037998795509,-1145.10009765625,18.3000011444092,-878.100036621094,0.961729632954422,-0.0190072148402058,0.163543498044237,ST
14.5,0.576011657714844,-1.59763991832733,9.54995059967041,0.144817993044853,-0.381099998950958,0.0457319989800453,-1149.90002441406,13.5000009536743,-887.700012207031,0.960391783000639,0.0600361313059303,0.165515925947365,ST
14.5333333333333,0.959421336650848,-1.34043836593628,8.3817777633667,0.243903994560242,-1.42531394958496,0.160062000155449,-1137.90002441406,19.5,-870.900024414062,0.956798022717756,0.114923051096866,0.158236840111178,ST
14.5666666666667,0.311034351587296,-1.45109486579895,9.17312049865723,0.304879993200302,-0.990859985351562,0.0457319989800453,-1135.5,14.1000003814697,-882.900024414062,0.954711975687337,0.0352330430463657,0.156371578898223,ST
14.6,0.238659039139748,-1.64608943462372,9.77664661407471,0.274392008781433,0.670735955238342,0.0457319989800453,-1149.90002441406,14.7000007629395,-885.300048828125,0.955023720864279,0.0229090789481746,0.166316136460273,ST
14.6333333333333,0.582591235637665,-1.58627510070801,9.59899806976318,0.0533539988100529,0.0457319989800453,-0.0152439996600151,-1140.30004882812,20.1000003814697,-887.700012207031,0.955353791553261,0.0597229958454958,0.163679503274399,ST
14.6666666666667,0.131591454148293,-1.78246605396271,10.054783821106,-0.320124000310898,-0.914639949798584,-0.342989981174469,-1147.5,17.7000007629395,-866.100036621094,0.956829753578833,0.0145957362647969,0.175997624759598,ST
14.7,0.60352623462677,-1.82313978672028,9.5206413269043,-0.495429992675781,-0.754577994346619,-0.823175966739655,-1145.10009765625,17.1000003814697,-878.100036621094,0.964352853626339,0.0637323966451606,0.189990020869498,ST
14.7333333333333,0.626255691051483,-1.97865700721741,9.449462890625,-0.388722002506256,-0.495429992675781,-0.945127964019775,-1149.90002441406,17.1000003814697,-870.900024414062,0.972050286800339,0.0659601160015489,0.20698223604269,ST
14.7666666666667,0.502440094947815,-1.81297135353088,9.08698844909668,-0.0304879993200302,-0.243903994560242,-0.655492007732391,-1157.10009765625,15.9000005722046,-890.100036621094,0.979015168682033,0.0548181963325009,0.196928988644479,ST
14.8,-0.164489313960075,-1.95592749118805,9.84363842010498,0.46494197845459,0.37347799539566,0.160062000155449,-1154.70007324219,14.1000003814697,-885.300048828125,0.978191001955166,-0.0170287996849816,0.195332185992414,ST
14.8333333333333,0.554478526115417,-1.79442894458771,9.17910194396973,0.388722002506256,0.0152439996600151,0.175305992364883,-1149.90002441406,18.9000015258789,-890.100036621094,0.976313047484848,0.0590740402402043,0.192397033919534,ST
14.8666666666667,0.286510497331619,-2.09888362884521,9.60557842254639,0.0533539988100529,-0.274392008781433,0.548784017562866,-1140.30004882812,8.10000038146973,-873.300048828125,0.969135318773082,0.0294173057477635,0.215046358793119,ST
14.9,0.436644375324249,-2.02411580085754,9.36093711853027,-0.114329993724823,-0.259148001670837,0.190549999475479,-1157.10009765625,18.3000011444092,-880.500061035156,0.966759425593838,0.0459196416607994,0.213171784771155,ST
14.9333333333333,0.203966751694679,-2.20774579048157,9.39263916015625,0.106707997620106,0.487807989120483,0.564027965068817,-1147.5,20.7000007629395,-882.900024414062,0.961600798503678,0.020101617783695,0.230676197279445,ST
14.9666666666667,-0.0023925718851387,-2.11802434921265,9.4913330078125,0.182927995920181,0.548784017562866,0.411587983369827,-1149.90002441406,8.70000076293945,-892.500061035156,0.958788104371251,-0.001321317631861,0.219244836013947,ST
15.0,-0.418101936578751,-2.16767001152039,9.96924877166748,0.594515979290009,0.731711983680725,0.78506600856781,-1142.70007324219,15.9000005722046,-885.300048828125,0.952531323176415,-0.0424661562969779,0.21302485253472,ST
15.0333333333333,0.169872596859932,-1.84048593044281,9.35794639587402,0.99848198890686,-0.335367977619171,0.403965979814529,-1147.5,8.10000038146973,-870.900024414062,0.947414321102063,0.0182042994071702,0.192484560744827,ST
15.0666666666667,-0.194396466016769,-1.90987050533295,9.81492805480957,1.42531394958496,-0.182927995920181,0.556405961513519,-1142.70007324219,23.7000007629395,-873.300048828125,0.941406999729076,-0.0192875575080236,0.189681180453361,ST
15.1,0.0400755777955055,-1.6903520822525,9.02179050445557,1.45580196380615,0.198172003030777,0.228659987449646,-1152.30004882812,17.1000003814697,-882.900024414062,0.939397557451051,0.0039362621106131,0.182681432369223,ST
15.1333333333333,-0.0478514358401299,-1.59345293045044,9.46920108795166,1.29574000835419,0.121951997280121,0.144817993044853,-1157.10009765625,12.9000005722046,-878.100036621094,0.938165784132174,-0.0052278766582554,0.164466389968759,ST
15.1666666666667,-0.0645994395017624,-1.53064787387848,9.95728588104248,1.29574000835419,-0.396344006061554,0.228659987449646,-1133.10009765625,14.7000007629395,-873.300048828125,0.935196223525715,-0.0057876737375642,0.150273573049252,ST
15.2,0.339147061109543,-1.46664655208588,9.66180324554443,1.14329993724823,-1.17378795146942,0.266770005226135,-1140.30004882812,23.1000003814697,-887.700012207031,0.930030701099455,0.0366292920717206,0.148681604202794,ST
15.2333333333333,0.409727931022644,-1.37931764125824,9.57387638092041,0.975615978240967,-1.16616594791412,0.266770005226135,-1152.30004882812,14.7000007629395,-870.900024414062,0.924993166310213,0.0442807574475012,0.141419243626475,ST
15.2666666666667,0.991721034049988,-1.17834162712097,8.80885124206543,0.830797970294952,-0.792688012123108,0.472563982009888,-1149.90002441406,15.9000005722046,-875.700012207031,0.918556052180341,0.112362746734775,0.131645396604169,ST
15.3,0.442625790834427,-1.34223282337189,9.14560604095459,0.571649968624115,-0.510673999786377,0.541162014007568,-1145.10009765625,22.5,-863.700012207031,0.910850906632395,0.0486411291774216,0.14476705549472,ST
15.3333333333333,0.0939084440469742,-1.44092643260956,9.74255275726318,0.236281991004944,0.46494197845459,0.846041977405548,-1159.5,19.5,-866.100036621094,0.902789315762496,0.0085464263690313,0.146433932529742,ST
15.3666666666667,0.137572884559631,-1.65087461471558,9.73657131195068,0.0609759986400604,0.739333987236023,1.20427596569061,-1152.30004882812,18.3000011444092,-870.900024414062,0.891494883673908,0.0123038033151896,0.167857170464903,ST
15.4,0.714182734489441,-1.66702449321747,9.40280723571777,-0.350611984729767,-0.533540010452271,0.495429992675781,-1147.5,8.10000038146973,-892.500061035156,0.885358738778101,0.0753675385455781,0.176148879130391,ST
15.4333333333333,-0.0478514358401299,-1.53842377662659,9.34060096740723,-0.266770005226135,-0.640248000621796,1.08232402801514,-1164.30004882812,20.7000007629395,-868.500061035156,0.873657582665604,-0.0042014066619958,0.16370437301459,ST
15.4666666666667,0.0071777156554162,-1.56414389610291,9.5625114440918,-0.0304879993200302,0.396344006061554,0.983237981796265,-1137.90002441406,23.7000007629395,-882.900024414062,0.86425831500954,-0.0002219605918598,0.162188542376373,ST
15.5,-0.219518467783928,-1.34941053390503,8.97633171081543,0.434453994035721,0.121951997280121,1.64635193347931,-1147.5,17.1000003814697,-878.100036621094,0.847493448386236,-0.0247961463623483,0.148395094577094,ST
15.5333333333333,-0.465953379869461,-1.59943425655365,10.2593479156494,0.304879993200302,0.0685980021953583,1.62348592281342,-1140.30004882812,15.9000005722046,-875.700012207031,0.831307914304441,-0.0453828855893373,0.153992952820341,ST
15.5666666666667,0.0819455906748772,-1.44272089004517,9.70546817779541,0.541162014007568,-0.83841997385025,1.87501192092896,-1140.30004882812,14.7000007629395,-885.300048828125,0.810664153850639,0.0092801556548211,0.1466616979902,ST
15.6,0.727940022945404,-1.28481113910675,9.20183181762695,0.533540010452271,-1.94360995292664,1.08232402801514,-1159.5,14.7000007629395,-880.500061035156,0.795927628487434,0.0812576687919185,0.137991233256161,ST
15.6333333333333,-0.102880589663982,-1.39905643463135,10.0787086486816,0.518296003341675,-1.6615959405899,1.22714197635651,-1161.90002441406,9.90000057220459,-887.700012207031,0.78095753089786,-0.0074644231891057,0.137010057702877,ST
15.6666666666667,0.915158748626709,-1.30155909061432,9.1988410949707,0.228659987449646,-0.92988395690918,0.236281991004944,-1145.10009765625,14.7000007629395,-880.500061035156,0.776859209179549,0.0996582624412877,0.140220356869966,ST
15.7,0.642405569553375,-1.30215728282928,9.49851036071777,0.335367977619171,-0.731711983680725,-0.327746003866196,-1140.30004882812,17.7000007629395,-875.700012207031,0.779380490221316,0.0682659692172918,0.135631748932835,ST
15.7333333333333,0.74050098657608,-1.40324342250824,9.56729698181152,0.350611984729767,-0.0533539988100529,-1.21189796924591,-1145.10009765625,12.3000001907349,-870.900024414062,0.79185150769998,0.0768253678641646,0.144857494639204,ST
15.7666666666667,0.43425178527832,-1.21423017978668,9.30291748046875,0.213415995240211,-0.358233988285065,-1.21189796924591,-1154.70007324219,12.9000005722046,-873.300048828125,0.804647699687332,0.0471684465604318,0.129331269297878,ST
15.8,0.708201289176941,-1.2698575258255,8.86447906494141,0.0838419944047928,0.0076219998300075,-1.27287399768829,-1149.90002441406,18.3000011444092,-870.900024414062,0.817611720245305,0.0792077431142069,0.14195806710336,ST
15.8333333333333,-0.0161498598754406,-1.37094366550446,9.46979999542236,-0.3125019967556,0.259148001670837,-0.846041977405548,-1147.5,16.5,-870.900024414062,0.826622118023792,-0.0018629435274321,0.144317150489495,ST
15.8666666666667,-0.119030453264713,-1.70410931110382,9.48894023895264,-0.663114011287689,0.937505960464478,-0.983237981796265,-1161.90002441406,11.7000007629395,-863.700012207031,0.838522410738541,-0.0136424305974238,0.178853403740764,ST
15.9,-0.0293090064078569,-1.95114243030548,10.5763635635376,-1.04421401023865,1.15854394435883,-1.01372599601746,-1147.5,15.9000005722046,-885.300048828125,0.851027934423937,-0.0043957339138446,0.184258127807526,ST
15.9333333333333,0.724949300289154,-1.88714110851288,9.67137336730957,-1.07470202445984,-0.899396002292633,-1.75305998325348,-1154.70007324219,15.3000001907349,-882.900024414062,0.868901707849992,0.0755436439112987,0.19437352779182,ST
15.9666666666667,0.592161536216736,-1.72624063491821,9.45125675201416,-0.175305992364883,-1.01372599601746,-1.46342396736145,-1154.70007324219,12.3000001907349,-890.100036621094,0.882938937866858,0.063765472292943,0.18083107847765,ST
16.0,0.687864422798157,-1.8506543636322,9.83107757568359,0.541162014007568,0.121951997280121,-1.44817996025085,-1142.70007324219,12.9000005722046,-887.700012207031,0.899003756924094,0.0689069844031483,0.184948187996469,ST
16.0333333333333,0.769211888313293,-1.71427774429321,9.32923603057861,0.87652999162674,0.853663980960846,-1.40244793891907,-1137.90002441406,10.5,-868.500061035156,0.914506929286174,0.0798813710453283,0.179985713945168,ST
16.0666666666667,0.372643083333969,-1.51928317546844,8.80586051940918,0.922261953353882,1.21951997280121,-1.31860601902008,-1140.30004882812,21.3000011444092,-882.900024414062,0.930313770251463,0.0399964766752932,0.169141559678304,ST
16.1,-0.313426911830902,-1.58208811283112,9.64326095581055,0.724089980125427,1.62348592281342,-0.807931959629059,-1137.90002441406,12.3000001907349,-882.900024414062,0.941487813100669,-0.0345770952116103,0.161418148993075,ST
16.1333333333333,-0.0275145769119263,-1.88056147098541,9.75331974029541,0.152439996600151,0.632625997066498,-0.632625997066498,-1130.70007324219,12.9000005722046,-882.900024414062,0.949705131782173,-0.0036686368951312,0.190192543790918,ST
16.1666666666667,0.234472051262856,-2.04744338989258,9.6103630065918,-0.350611984729767,-0.548784017562866,-0.830797970294952,-1128.30004882812,12.9000005722046,-873.300048828125,0.956817847594453,0.0250759576374696,0.210473641045895,ST
16.2,0.405540943145752,-2.13537049293518,9.51884746551514,-0.655492007732391,-1.13567793369293,-0.46494197845459,-1145.10009765625,13.5000009536743,-880.500061035156,0.958837879262029,0.0436452326086743,0.221797440624968,ST
16.2333333333333,0.553880393505096,-2.1592960357666,9.60258769989014,-0.777444005012512,-1.03659200668335,-0.358233988285065,-1145.10009765625,18.3000011444092,-875.700012207031,0.960498925148674,0.0581077182080672,0.222530931589198,ST
16.2666666666667,0.736313998699188,-2.11981868743896,9.23532772064209,-0.274392008781433,-0.221037998795509,0.426831990480423,-1154.70007324219,17.7000007629395,-878.100036621094,0.955651547018044,0.0777457666440226,0.22616486502291,ST
16.3,0.340343356132507,-2.23466205596924,9.13663387298584,0.503051996231079,0.342989981174469,0.945127964019775,-1137.90002441406,17.7000007629395,-880.500061035156,0.946018076584832,0.0352274952246621,0.239037783870985,ST
16.3333333333333,0.138769164681435,-2.30584120750427,9.50449180603027,0.533540010452271,0.564027965068817,1.2423859834671,-1154.70007324219,17.1000003814697,-880.500061035156,0.934828733311002,0.0127382904658714,0.237101352436727,ST
16.3666666666667,-0.250621914863586,-2.21253085136414,9.54636192321777,0.449698001146317,0.304879993200302,1.43293595314026,-1128.30004882812,13.5000009536743,-880.500061035156,0.921096353575178,-0.0266217343712413,0.226907314691805,ST
16.4,-0.0269164331257343,-2.1491277217865,9.22635555267334,0.586893975734711,0.129574000835419,1.20427596569061,-1135.5,14.7000007629395,-892.500061035156,0.90785959356141,-0.0035418942988239,0.227821035110237,ST
16.4333333333333,0.208153754472733,-2.33515024185181,9.91481781005859,0.586893975734711,-0.243903994560242,1.18903195858002,-1137.90002441406,18.3000011444092,-882.900024414062,0.895160593255397,0.0203553146798107,0.230322534546309,ST
16.4666666666667,-0.487486511468887,-2.02591013908386,9.46621036529541,1.15854394435883,-0.266770005226135,2.04269599914551,-1145.10009765625,18.3000011444092,-870.900024414062,0.87276203739603,-0.0505675850682409,0.208641050954529,ST
16.5,-0.0251220054924488,-1.92542219161987,8.9835090637207,1.58537602424622,0.449698001146317,1.79879200458527,-1137.90002441406,13.5000009536743,-870.900024414062,0.855669085257591,-0.0041859410375116,0.208354618995353,ST
16.5333333333333,-0.458775669336319,-1.97267556190491,10.1157941818237,1.51677799224854,0.167683988809586,2.33995389938354,-1152.30004882812,11.7000007629395,-882.900024414062,0.832346644226237,-0.0455122822433753,0.18977960421009,ST
16.5666666666667,0.0418700091540813,-1.7166702747345,9.52482891082764,1.44817996025085,-0.769822001457214,1.97409796714783,-1145.10009765625,12.3000001907349,-882.900024414062,0.810555876873927,0.0050088572919796,0.175816772754988,ST
16.6,0.364269077777863,-1.51629245281219,8.55224800109863,1.46342396736145,-1.34147191047668,1.38720393180847,-1145.10009765625,10.5,-875.700012207031,0.793500986162598,0.0437756564388931,0.173043695256392,ST
16.6333333333333,0.0496458671987057,-1.37572884559631,8.77057075500488,1.31860601902008,-0.853663980960846,1.28811800479889,-1145.10009765625,15.3000001907349,-875.700012207031,0.779247827944441,0.0067483577721942,0.153319761156354,ST
16.6666666666667,-0.233275756239891,-1.53543305397034,9.69111251831055,1.44055795669556,0.358233988285065,1.42531394958496,-1147.5,12.3000001907349,-875.700012207031,0.765519765754836,-0.0247475571475398,0.15455791815359,ST
16.7,-0.0747678726911545,-1.31711077690125,9.63608360290527,1.41769194602966,-0.114329993724823,1.34909391403198,-1135.5,9.90000057220459,-878.100036621094,0.750470032908902,-0.0078102457635736,0.133359645792588,ST
16.7333333333333,-0.102880589663982,-1.42657101154327,10.1887674331665,1.04421401023865,-0.533540010452271,1.21189796924591,-1147.5,17.7000007629395,-887.700012207031,0.736606634851351,-0.009365859870607,0.13726476385832,ST
16.7666666666667,0.164489313960075,-1.38589727878571,10.2336282730103,0.548784017562866,-0.922261953353882,0.983237981796265,-1142.70007324219,15.3000001907349,-892.500061035156,0.724470640691224,0.0172818031229963,0.133683565833392,ST
16.8,0.794333875179291,-1.29139065742493,9.36093711853027,0.205793991684914,-1.6920839548111,0.609759986400604,-1135.5,20.1000003814697,-880.500061035156,0.71472199625779,0.0866208857143043,0.136856090292701,DLL
16.8333333333333,0.691453278064728,-1.20406174659729,8.82500171661377,0.0457319989800453,-1.49391198158264,0.335367977619171,-1147.5,15.3000001907349,-880.500061035156,0.708759160512735,0.0799834618787413,0.135595634222687,DLL
16.8666666666667,0.657957255840302,-1.3721399307251,8.88003063201904,-0.0152439996600151,-0.0838419944047928,0.830797970294952,-1149.90002441406,15.9000005722046,-892.500061035156,0.698523896841993,0.0730216116140736,0.153430297704901,DLL
16.9,0.40853163599968,-1.60362136363983,9.08758640289307,-0.167683988809586,-0.205793991684914,1.08232402801514,-1137.90002441406,8.70000076293945,-873.300048828125,0.685934872507817,0.0442882700497319,0.175026860372814,DLL
16.9333333333333,0.159704178571701,-2.15690350532532,9.39862060546875,-0.0685980021953583,0.228659987449646,1.43293595314026,-1149.90002441406,14.7000007629395,-885.300048828125,0.670438010651834,0.0156334479707685,0.225704617308106,DLL
16.9666666666667,-0.709397554397583,-2.36984252929688,10.2976293563843,0.967993974685669,1.28049600124359,1.60061991214752,-1142.70007324219,12.9000005722046,-878.100036621094,0.657750408858283,-0.0697712350259599,0.22435356050238,DLL
17.0,-0.205761179327965,-2.01992893218994,10.1032333374023,2.47714996337891,0.388722002506256,1.73781597614288,-1140.30004882812,14.1000003814697,-873.300048828125,0.640212624078409,-0.0212519960866198,0.192965916333997,DLL
17.0333333333333,-0.157311603426933,-1.54619956016541,9.44467735290527,2.58385801315308,-0.891773998737335,1.77592599391937,-1147.5,19.5,-880.500061035156,0.620333044307805,-0.0153906080212528,0.15773700760966,DLL
17.0666666666667,-0.122619308531284,-1.287801861763,9.76946926116943,2.14178204536438,-1.18903195858002,1.53202199935913,-1149.90002441406,15.9000005722046,-870.900024414062,0.602300534535682,-0.0107270482459801,0.127310996194729,DLL
17.1,-0.339147061109543,-0.852951884269714,9.32205867767334,1.28811800479889,-1.84452390670776,2.64483404159546,-1154.70007324219,15.3000001907349,-880.500061035156,0.570139222824628,-0.0334100815089071,0.0888452420469193,DLL
17.1333333333333,-1.36256968975067,-0.215929612517357,9.30291748046875,0.693601965904236,-1.70732796192169,5.63265800476074,-1145.10009765625,13.5000009536743,-880.500061035156,0.504778183625332,-0.142559244364768,0.0206188123780908,DLL
17.1666666666667,-1.80340111255646,-0.304454773664474,9.94831371307373,-0.556405961513519,-2.60672402381897,10.5031156539917,-1169.10009765625,12.9000005722046,-873.300048828125,0.387032886954401,-0.175207690617702,0.0282969809322361,DLL
17.2,-2.0970892906189,-0.329576790332794,9.66718673706055,-0.411587983369827,-4.06252574920654,14.7714357376099,-1142.70007324219,18.9000015258789,-885.300048828125,0.235113695905044,-0.207145795324886,0.0293360972563678,DLL
17.2333333333333,-2.46674156188965,-1.06409633159637,9.82928371429443,-0.243903994560242,-5.18296003341675,21.951358795166,-1159.5,18.9000015258789,-868.500061035156,0.0247270583403386,-0.239256031870996,0.0986903418804621,DLL
17.2666666666667,-1.49655365943909,-1.59584546089172,7.78901767730713,-1.80641400814056,-7.02748394012451,24.9696712493896,-1173.90002441406,18.9000015258789,-863.700012207031,-0.245250246421076,-0.182558954124491,0.19686335688153,DLL
17.3,-0.177648469805717,-2.29268193244934,8.1903715133667,-4.35978412628174,-6.46345567703247,28.0184707641602,-1173.90002441406,23.1000003814697,-868.500061035156,-0.536138104965581,-0.0236278088862505,0.279261627460178,DLL
17.3333333333333,0.866709172725677,-3.65884065628052,8.08450031280518,-5.25918006896973,-7.55340194702148,27.7440795898438,-1188.30004882812,37.5,-854.100036621094,-0.831015465426877,0.0886746161176061,0.438429199676215,DLL
17.3666666666667,1.0975923538208,-3.82931137084961,9.05109977722168,-5.44210767745972,-5.38113164901733,24.9086952209473,-1171.5,37.5,-846.900024414062,-1.07979951019023,0.102287283710595,0.41423226783158,DLL
17.4,2.27653217315674,-4.51897001266479,10.0440168380737,-4.15398979187012,-3.52136397361755,19.824821472168,-1159.5,36.9000015258789,-851.700012207031,-1.27375586825742,0.19469428452016,0.436719123303481,DLL
17.4333333333333,2.11981868743896,-4.29047966003418,10.178599357605,-2.78965187072754,-2.80489587783813,14.2531394958496,-1157.10009765625,54.3000030517578,-839.700012207031,-1.40732304641926,0.184218038375219,0.408432936031725,DLL
17.4666666666667,1.35359752178192,-3.9058735370636,10.5237274169922,-0.945127964019775,-2.73629784584045,11.242449760437,-1142.70007324219,48.9000015258789,-846.900024414062,-1.51648488193959,0.117613280225889,0.35944959144511,DLL
17.5,1.68317437171936,-3.54399704933167,8.68383979797363,1.17378795146942,-2.0579400062561,7.78968381881714,-1145.10009765625,44.7000007629395,-832.500061035156,-1.6043225428212,0.175705699088,0.387881154340685,DLL
17.5333333333333,1.12630319595337,-3.50093078613281,10.1815900802612,1.76068198680878,-0.381099998950958,5.29728984832764,-1149.90002441406,50.7000007629395,-851.700012207031,-1.65097739657493,0.101923633009775,0.3290742184666,DLL
